Type,Spatial_Frequency,filepath,file_name,human_trials.thisRepN,human_trials.thisTrialN,human_trials.thisN,human_trials.thisIndex,instruction.started,key_resp.started,key_resp.keys,key_resp.rt,etRecord.started,etRecord.stopped,Human_image.started,roi.started,Human_image.stopped,roi.stopped,roi.numLooks,roi.timesOn,roi.timesOff,Likebility_slider_3.started,ratingText.started,image.started,mouse.started,Likebility_slider_3.response,Likebility_slider_3.rt,mouse.x,mouse.y,mouse.leftButton,mouse.midButton,mouse.rightButton,mouse.time,mouse.clicked_name,ISI_2.started,etRecord_2.started,etRecord_2.stopped,participant,session,date,expName,psychopyVersion,frameRate,
,,,,,,,,59.02205600007437,59.02205600007437,space,5.434011899866164,,,,,,,,,,,,,,,,,,,,,,,,,,P11,001,2023-04-14_15h21.45.504,Human_uncanny,2022.2.5,59.91396359065018,
Human,HSF,Stimuli For Psychopy/Human/matched-32-cpi-low-Rafd090_36_Caucasian_male_neutral_frontal.jpg,matched-32-cpi-low-Rafd090_36_Caucasian_male_neutral_frontal.jpg,0,0,0,28,,,,,1.4299992471933365e-05,1.4299992471933365e-05,65.47351530008018,65.47351530008018,66.47278599999845,66.47278599999845,1,[0.0006434998940676451],[0.9905683998949826],66.47278599999845,66.47278599999845,67.57149860006757,1.0959438998252153,36.66666666666666,1.0810667001642287,[0.4666666666666667],[-0.4009259259259259],[1],[0],[0],[0.4857650001067668],['image'],1.5799887478351593e-05,,,P11,001,2023-04-14_15h21.45.504,Human_uncanny,2022.2.5,59.91396359065018,
Human,HSF,Stimuli For Psychopy/Human/matched-32-cpi-low-Rafd090_37_Caucasian_female_neutral_frontal.jpg,matched-32-cpi-low-Rafd090_37_Caucasian_female_neutral_frontal.jpg,0,1,1,29,,,,,,,69.55457969987765,69.55457969987765,70.55671839998104,70.55671839998104,1,[0.00039749988354742527],[0.9988514999859035],70.55671839998104,70.55671839998104,71.05732930009253,0.49741139984689653,35.37037037037035,0.48320159991271794,[0.49907407407407406],[-0.4046296296296296],[1],[0],[0],[0.4169099999126047],['image'],1.190020702779293e-05,,,P11,001,2023-04-14_15h21.45.504,Human_uncanny,2022.2.5,59.91396359065018,
Human,LSF,Stimuli For Psychopy/Human/matched-8-cpi-low-Rafd090_28_Caucasian_male_neutral_frontal.jpg,matched-8-cpi-low-Rafd090_28_Caucasian_male_neutral_frontal.jpg,0,2,2,8,,,,,,,72.97134019993246,72.97134019993246,73.97154689999297,73.97154689999297,1,[0.0006506999488919973],[0.9966982000041753],73.97154689999297,73.97154689999297,74.59021380008198,0.6130617000162601,6.851851851851848,0.5995134999975562,[0.39351851851851855],[-0.46944444444444444],[1],[0],[0],[0.38421110017225146],['image'],1.4299992471933365e-05,,,P11,001,2023-04-14_15h21.45.504,Human_uncanny,2022.2.5,59.91396359065018,
Human,LSF,Stimuli For Psychopy/Human/matched-8-cpi-low-Rafd090_26_Caucasian_female_neutral_frontal.jpg,matched-8-cpi-low-Rafd090_26_Caucasian_female_neutral_frontal.jpg,0,3,3,7,,,,,,,76.45501459995285,76.45501459995285,77.45660310005769,77.45660310005769,1,[0.00037409993819892406],[0.9996465998701751],77.45660310005769,77.45660310005769,78.1877268999815,0.7144321999512613,-25.740740740740748,0.7115474999882281,[0.5018518518518519],[-0.41759259259259257],[1],[0],[0],[0.4002275001257658],['image'],1.3899989426136017e-05,,,P11,001,2023-04-14_15h21.45.504,Human_uncanny,2022.2.5,59.91396359065018,
Human,LSF,Stimuli For Psychopy/Human/matched-8-cpi-low-Rafd090_16_Caucasian_female_neutral_frontal.jpg,matched-8-cpi-low-Rafd090_16_Caucasian_female_neutral_frontal.jpg,0,4,4,2,,,,,,,80.0900149999652,80.0900149999652,,,1,[0.00037320004776120186],[0.9802433999720961],81.08995849988423,81.08995849988423,81.50413429993205,0.4145875000394881,46.296296296296305,0.3976847999729216,[0.41574074074074074],[-0.4148148148148148],[1],[0],[0],[0.3001290999818593],['image'],1.3899989426136017e-05,,,P11,001,2023-04-14_15h21.45.504,Human_uncanny,2022.2.5,59.91396359065018,
Human,HSF,Stimuli For Psychopy/Human/matched-32-cpi-low-Rafd090_32_Caucasian_female_neutral_frontal.jpg,matched-32-cpi-low-Rafd090_32_Caucasian_female_neutral_frontal.jpg,0,5,5,26,,,,,,,83.30661410000175,83.30661410000175,,,1,[0.013254400109872222],[0.9989581000991166],84.30675300001167,84.30675300001167,84.69290290004574,0.3868404000531882,49.25925925925924,0.3692413999233395,[0.5009259259259259],[-0.45925925925925926],[1],[0],[0],[0.29700560006313026],['image'],1.2299977242946625e-05,,,P11,001,2023-04-14_15h21.45.504,Human_uncanny,2022.2.5,59.91396359065018,
Human,HSF,Stimuli For Psychopy/Human/matched-32-cpi-low-Rafd090_24_Caucasian_male_neutral_frontal.jpg,matched-32-cpi-low-Rafd090_24_Caucasian_male_neutral_frontal.jpg,0,6,6,21,,,,,,,86.48978010006249,86.48978010006249,87.48996070004068,87.48996070004068,1,[0.01334489998407662],[1.0131526000332087],87.48996070004068,87.48996070004068,88.12102720001712,0.631685100030154,48.888888888888886,0.6140358000993729,[0.5194444444444445],[-0.44814814814814813],[1],[0],[0],[0.39814730011858046],['image'],1.5099998563528061e-05,,,P11,001,2023-04-14_15h21.45.504,Human_uncanny,2022.2.5,59.91396359065018,
Human,LSF,Stimuli For Psychopy/Human/matched-8-cpi-low-Rafd090_12_Caucasian_female_neutral_frontal.jpg,matched-8-cpi-low-Rafd090_12_Caucasian_female_neutral_frontal.jpg,0,7,7,1,,,,,,,90.02098680008203,90.02098680008203,91.02087090001442,91.02087090001442,1,[0.013472700025886297],[1.0131890999618918],91.02087090001442,91.02087090001442,92.2711531999521,1.2483785999938846,13.888888888888886,1.232060099951923,[0.38055555555555554],[-0.3814814814814815],[1],[0],[0],[0.40232019987888634],['image'],1.309998333454132e-05,,,P11,001,2023-04-14_15h21.45.504,Human_uncanny,2022.2.5,59.91396359065018,
Human,BSF,Stimuli For Psychopy/Human/matched-Rafd090_36_Caucasian_male_neutral_frontal.jpg,matched-Rafd090_36_Caucasian_male_neutral_frontal.jpg,0,8,8,43,,,,,,,94.17306110006757,94.17306110006757,,,2,"[0.414547499967739, 0.531359100015834]","[0.4476747000589967, 0.9961395000573248]",95.18953399988823,95.18953399988823,95.73962270002812,0.5646222000941634,54.074074074074076,0.5333048000466079,"[0.4388888888888889, 0.4388888888888889]","[-0.3527777777777778, -0.4]","[1, 1]","[0, 0]","[0, 0]","[0.38175530009903014, 0.6482677001040429]",['image'],1.840014010667801e-05,,,P11,001,2023-04-14_15h21.45.504,Human_uncanny,2022.2.5,59.91396359065018,
Human,BSF,Stimuli For Psychopy/Human/matched-Rafd090_19_Caucasian_female_neutral_frontal.jpg,matched-Rafd090_19_Caucasian_female_neutral_frontal.jpg,0,9,9,34,,,,,,,97.88722279993817,97.88722279993817,98.88715579989366,98.88715579989366,1,[0.013172999955713749],[1.0129564998205751],98.88715579989366,98.88715579989366,99.60631319996901,0.7173884001094848,32.77777777777777,0.7021118998527527,[0.40185185185185185],[-0.42777777777777776],[1],[0],[0],[0.3805374000221491],['image'],1.2699980288743973e-05,,,P11,001,2023-04-14_15h21.45.504,Human_uncanny,2022.2.5,59.91396359065018,
Human,BSF,Stimuli For Psychopy/Human/matched-Rafd090_01_Caucasian_female_neutral_frontal.jpg,matched-Rafd090_01_Caucasian_female_neutral_frontal.jpg,0,10,10,30,,,,,,,101.4708330000285,101.4708330000285,102.47294929996133,102.47294929996133,1,[0.0004086000844836235],[0.9963909999933094],102.47294929996133,102.47294929996133,103.17051060008816,0.6810777999926358,45.55555555555554,0.6808960000053048,[0.4361111111111111],[-0.44166666666666665],[1],[0],[0],[0.48325080005452037],['image'],1.2999866157770157e-05,,,P11,001,2023-04-14_15h21.45.504,Human_uncanny,2022.2.5,59.91396359065018,
Human,BSF,Stimuli For Psychopy/Human/matched-Rafd090_24_Caucasian_male_neutral_frontal.jpg,matched-Rafd090_24_Caucasian_male_neutral_frontal.jpg,0,11,11,36,,,,,,,105.13740630005486,105.13740630005486,106.13738359999843,106.13738359999843,1,[0.0004205999430269003],[0.9958885000087321],106.13738359999843,106.13738359999843,106.80611749994569,0.6492764998693019,37.96296296296299,0.6488551001530141,[0.4601851851851852],[-0.42685185185185187],[1],[0],[0],[0.3506217999383807],['image'],1.5099998563528061e-05,,,P11,001,2023-04-14_15h21.45.504,Human_uncanny,2022.2.5,59.91396359065018,
Human,HSF,Stimuli For Psychopy/Human/matched-32-cpi-low-Rafd090_01_Caucasian_female_neutral_frontal.jpg,matched-32-cpi-low-Rafd090_01_Caucasian_female_neutral_frontal.jpg,0,12,12,15,,,,,,,108.65595700009726,108.65595700009726,,,1,[0.00038180011324584484],[0.9967867000959814],109.67248579999432,109.67248579999432,110.12067020009272,0.4639340001158416,44.074074074074076,0.43174370005726814,[0.49907407407407406],[-0.43703703703703706],[1],[0],[0],[0.38551090005785227],['image'],1.2899981811642647e-05,,,P11,001,2023-04-14_15h21.45.504,Human_uncanny,2022.2.5,59.91396359065018,
Human,HSF,Stimuli For Psychopy/Human/matched-32-cpi-low-Rafd090_31_Caucasian_female_neutral_frontal.jpg,matched-32-cpi-low-Rafd090_31_Caucasian_female_neutral_frontal.jpg,0,13,13,25,,,,,,,112.0036037999671,112.0036037999671,113.00355040002614,113.00355040002614,1,[0.00041200011037290096],[0.9968585001770407],113.00355040002614,113.00355040002614,113.60595420002937,0.5983527998905629,28.518518518518533,0.5857842999976128,[0.4222222222222222],[-0.42407407407407405],[1],[0],[0],[0.3501287999097258],['image'],1.1999858543276787e-05,,,P11,001,2023-04-14_15h21.45.504,Human_uncanny,2022.2.5,59.91396359065018,
Human,LSF,Stimuli For Psychopy/Human/matched-8-cpi-low-Rafd090_37_Caucasian_female_neutral_frontal.jpg,matched-8-cpi-low-Rafd090_37_Caucasian_female_neutral_frontal.jpg,0,14,14,14,,,,,,,115.45386069989763,115.45386069989763,116.45579999987967,116.45579999987967,2,"[0.0003738999366760254, 0.5640398999676108]","[0.4305636000353843, 0.9949084999971092]",116.45579999987967,116.45579999987967,116.95577059988864,0.49608869990333915,-37.5925925925926,0.4827940999530256,[0.4074074074074074],[-0.45925925925925926],[1],[0],[0],[0.41689059999771416],['image'],1.3499986380338669e-05,,,P11,001,2023-04-14_15h21.45.504,Human_uncanny,2022.2.5,59.91396359065018,
Human,BSF,Stimuli For Psychopy/Human/matched-Rafd090_12_Caucasian_female_neutral_frontal.jpg,matched-Rafd090_12_Caucasian_female_neutral_frontal.jpg,0,15,15,31,,,,,,,118.85385320009664,118.85385320009664,119.85379730002023,119.85379730002023,1,[0.000582000007852912],[0.9975922999437898],119.85379730002023,119.85379730002023,120.5041012999136,0.6315721001010388,21.296296296296305,0.631664999993518,[0.44537037037037036],[-0.4009259259259259],[1],[0],[0],[0.4059172999113798],['image'],1.3399869203567505e-05,,,P11,001,2023-04-14_15h21.45.504,Human_uncanny,2022.2.5,59.91396359065018,
Human,HSF,Stimuli For Psychopy/Human/matched-32-cpi-low-Rafd090_12_Caucasian_female_neutral_frontal.jpg,matched-32-cpi-low-Rafd090_12_Caucasian_female_neutral_frontal.jpg,0,16,16,16,,,,,,,122.40331210009754,122.40331210009754,123.40573940007016,123.40573940007016,1,[0.013375000096857548],[1.0157492000143975],123.40573940007016,123.40573940007016,124.10634039994329,0.6922126999124885,32.96296296296296,0.6830156999640167,[0.5037037037037037],[-0.4111111111111111],[1],[0],[0],[0.3671915999148041],['image'],1.300009898841381e-05,,,P11,001,2023-04-14_15h21.45.504,Human_uncanny,2022.2.5,59.91396359065018,
Human,HSF,Stimuli For Psychopy/Human/matched-32-cpi-low-Rafd090_33_Caucasian_male_neutral_frontal.jpg,matched-32-cpi-low-Rafd090_33_Caucasian_male_neutral_frontal.jpg,0,17,17,27,,,,,,,125.95559199992567,125.95559199992567,126.95862730010413,126.95862730010413,1,[0.00038659991696476936],[0.9973013999406248],126.95862730010413,126.95862730010413,127.60325359995477,0.6310189999639988,31.481481481481495,0.6305468999780715,[0.4759259259259259],[-0.41203703703703703],[1],[0],[0],[0.36745489994063973],['image'],1.3200100511312485e-05,,,P11,001,2023-04-14_15h21.45.504,Human_uncanny,2022.2.5,59.91396359065018,
Human,LSF,Stimuli For Psychopy/Human/matched-8-cpi-low-Rafd090_36_Caucasian_male_neutral_frontal.jpg,matched-8-cpi-low-Rafd090_36_Caucasian_male_neutral_frontal.jpg,0,18,18,13,,,,,,,129.45564300008118,129.45564300008118,130.453516199952,130.453516199952,2,"[0.0004238998517394066, 0.7001549999695271]","[0.6666523998137563, 0.9967284998856485]",130.453516199952,130.453516199952,131.13902819994837,0.6645905000623316,15.555555555555543,0.6660227000247687,[0.39537037037037037],[-0.42777777777777776],[1],[0],[0],[0.40242289984598756],['image'],1.2299977242946625e-05,,,P11,001,2023-04-14_15h21.45.504,Human_uncanny,2022.2.5,59.91396359065018,
Human,BSF,Stimuli For Psychopy/Human/matched-Rafd090_28_Caucasian_male_neutral_frontal.jpg,matched-Rafd090_28_Caucasian_male_neutral_frontal.jpg,0,19,19,38,,,,,,,133.0388619999867,133.0388619999867,134.03891290002503,134.03891290002503,1,[0.00035310001112520695],[0.9988586998078972],134.03891290002503,134.03891290002503,134.68643160001375,0.6458032999653369,36.296296296296305,0.6307979999110103,[0.5268518518518519],[-0.42962962962962964],[1],[0],[0],[0.3166946000419557],['image'],1.5099998563528061e-05,,,P11,001,2023-04-14_15h21.45.504,Human_uncanny,2022.2.5,59.91396359065018,
Human,HSF,Stimuli For Psychopy/Human/matched-32-cpi-low-Rafd090_30_Caucasian_male_neutral_frontal.jpg,matched-32-cpi-low-Rafd090_30_Caucasian_male_neutral_frontal.jpg,0,20,20,24,,,,,,,136.48678539996035,136.48678539996035,137.4888762999326,137.4888762999326,1,[0.0003768999595195055],[0.9971600999124348],137.4888762999326,137.4888762999326,138.1059759000782,0.5978129000868648,30.55555555555557,0.5963558999355882,[0.42407407407407405],[-0.3972222222222222],[1],[0],[0],[0.4029753999784589],['image'],1.2999866157770157e-05,,,P11,001,2023-04-14_15h21.45.504,Human_uncanny,2022.2.5,59.91396359065018,
Human,BSF,Stimuli For Psychopy/Human/matched-Rafd090_22_Caucasian_female_neutral_frontal.jpg,matched-Rafd090_22_Caucasian_female_neutral_frontal.jpg,0,21,21,35,,,,,,,139.99164379993454,139.99164379993454,141.0052137998864,141.0052137998864,1,[0.0003899000585079193],[1.0078211000654846],141.0052137998864,141.0052137998864,141.52191070001572,0.512505599996075,24.259259259259252,0.5013792000245303,[0.4046296296296296],[-0.41574074074074074],[1],[0],[0],[0.4861548999324441],['image'],1.2899981811642647e-05,,,P11,001,2023-04-14_15h21.45.504,Human_uncanny,2022.2.5,59.91396359065018,
Human,LSF,Stimuli For Psychopy/Human/matched-8-cpi-low-Rafd090_30_Caucasian_male_neutral_frontal.jpg,matched-8-cpi-low-Rafd090_30_Caucasian_male_neutral_frontal.jpg,0,22,22,9,,,,,,,143.50520209991373,143.50520209991373,,,1,[0.01350650005042553],[1.0116899001877755],144.52192720002495,144.52192720002495,145.60328570008278,1.0979414000175893,-7.962962962962962,1.0683997999876738,[0.3509259259259259],[-0.4324074074074074],[1],[0],[0],[0.38357440009713173],['image'],1.4699995517730713e-05,,,P11,001,2023-04-14_15h21.45.504,Human_uncanny,2022.2.5,59.91396359065018,
Human,HSF,Stimuli For Psychopy/Human/matched-32-cpi-low-Rafd090_28_Caucasian_male_neutral_frontal.jpg,matched-32-cpi-low-Rafd090_28_Caucasian_male_neutral_frontal.jpg,0,23,23,23,,,,,,,147.48619790002704,147.48619790002704,148.4860457999166,148.4860457999166,1,[0.0005878000520169735],[0.9962258001323789],148.4860457999166,148.4860457999166,149.0528124999255,0.5626210998743773,27.592592592592595,0.5497875001747161,[0.3453703703703704],[-0.39351851851851855],[1],[0],[0],[0.3669051001779735],['image'],1.2499978765845299e-05,,,P11,001,2023-04-14_15h21.45.504,Human_uncanny,2022.2.5,59.91396359065018,
Human,BSF,Stimuli For Psychopy/Human/matched-Rafd090_33_Caucasian_male_neutral_frontal.jpg,matched-Rafd090_33_Caucasian_male_neutral_frontal.jpg,0,24,24,42,,,,,,,150.92182329995558,150.92182329995558,,,1,[0.00041850004345178604],[0.9776135000865906],151.92209549993277,151.92209549993277,152.7859984000679,0.8647755000274628,31.111111111111114,0.8478935000021011,[0.5046296296296297],[-0.4305555555555556],[1],[0],[0],[0.36794809997081757],['image'],1.5700003132224083e-05,,,P11,001,2023-04-14_15h21.45.504,Human_uncanny,2022.2.5,59.91396359065018,
Human,BSF,Stimuli For Psychopy/Human/matched-Rafd090_18_Caucasian_female_neutral_frontal.jpg,matched-Rafd090_18_Caucasian_female_neutral_frontal.jpg,0,25,25,33,,,,,,,154.63863510009833,154.63863510009833,155.63670130004175,155.63670130004175,1,[0.0004048000555485487],[0.9970166999846697],155.63670130004175,155.63670130004175,156.33829519990832,0.6825508999172598,23.888888888888886,0.6808436000719666,[0.5027777777777778],[-0.43796296296296294],[1],[0],[0],[0.3820336000062525],['image'],1.4699995517730713e-05,,,P11,001,2023-04-14_15h21.45.504,Human_uncanny,2022.2.5,59.91396359065018,
Human,BSF,Stimuli For Psychopy/Human/matched-Rafd090_16_Caucasian_female_neutral_frontal.jpg,matched-Rafd090_16_Caucasian_female_neutral_frontal.jpg,0,26,26,32,,,,,,,158.2052313000895,158.2052313000895,159.204773100093,159.204773100093,1,[0.00044909981079399586],[0.996741299983114],159.204773100093,159.204773100093,159.9194330999162,0.6993628998752683,28.148148148148152,0.6994217000901699,[0.537962962962963],[-0.43425925925925923],[1],[0],[0],[0.5149610999505967],['image'],1.2999866157770157e-05,,,P11,001,2023-04-14_15h21.45.504,Human_uncanny,2022.2.5,59.91396359065018,
Human,LSF,Stimuli For Psychopy/Human/matched-8-cpi-low-Rafd090_31_Caucasian_female_neutral_frontal.jpg,matched-8-cpi-low-Rafd090_31_Caucasian_female_neutral_frontal.jpg,0,27,27,10,,,,,,,161.93576769996434,161.93576769996434,162.9357042000629,162.9357042000629,1,[0.014073600061237812],[1.013869100017473],162.9357042000629,162.9357042000629,163.72150119999424,0.7819167000707239,16.48148148148148,0.7692303999792784,[0.40555555555555556],[-0.475],[1],[0],[0],[0.3005353999324143],['image'],1.6600126400589943e-05,,,P11,001,2023-04-14_15h21.45.504,Human_uncanny,2022.2.5,59.91396359065018,
Human,HSF,Stimuli For Psychopy/Human/matched-32-cpi-low-Rafd090_16_Caucasian_female_neutral_frontal.jpg,matched-32-cpi-low-Rafd090_16_Caucasian_female_neutral_frontal.jpg,0,28,28,17,,,,,,,165.50471820007078,165.50471820007078,166.50273340009153,166.50273340009153,1,[0.00045219995081424713],[0.996832299977541],166.50273340009153,166.50273340009153,167.32142310007475,0.7973090000450611,19.62962962962962,0.7999152999836951,[0.42592592592592593],[-0.41574074074074074],[1],[0],[0],[0.38551530009135604],['image'],1.3299984857439995e-05,,,P11,001,2023-04-14_15h21.45.504,Human_uncanny,2022.2.5,59.91396359065018,
Human,LSF,Stimuli For Psychopy/Human/matched-8-cpi-low-Rafd090_22_Caucasian_female_neutral_frontal.jpg,matched-8-cpi-low-Rafd090_22_Caucasian_female_neutral_frontal.jpg,0,29,29,5,,,,,,,169.20464279991575,169.20464279991575,170.20275479997508,170.20275479997508,1,[0.0003467998467385769],[0.9976087999530137],170.20275479997508,170.20275479997508,170.72146459994838,0.5133198997937143,6.851851851851848,0.49976489995606244,[0.37222222222222223],[-0.38796296296296295],[1],[0],[0],[0.41881270008161664],['image'],1.4600111171603203e-05,,,P11,001,2023-04-14_15h21.45.504,Human_uncanny,2022.2.5,59.91396359065018,
Human,BSF,Stimuli For Psychopy/Human/matched-Rafd090_31_Caucasian_female_neutral_frontal.jpg,matched-Rafd090_31_Caucasian_female_neutral_frontal.jpg,0,30,30,40,,,,,,,172.6360291999299,172.6360291999299,173.63777790009044,173.63777790009044,1,[0.016055500134825706],[1.0137974000535905],173.63777790009044,173.63777790009044,174.20468469988555,0.562509800074622,34.62962962962962,0.5521005999762565,[0.39444444444444443],[-0.462037037037037],[1],[0],[0],[0.367353199981153],['image'],1.5600118786096573e-05,,,P11,001,2023-04-14_15h21.45.504,Human_uncanny,2022.2.5,59.91396359065018,
Human,BSF,Stimuli For Psychopy/Human/matched-Rafd090_32_Caucasian_female_neutral_frontal.jpg,matched-Rafd090_32_Caucasian_female_neutral_frontal.jpg,0,31,31,41,,,,,,,176.05452680005692,176.05452680005692,177.06920160003938,177.06920160003938,1,[0.0003402000293135643],[1.0138034999836236],177.06920160003938,177.06920160003938,178.2211573999375,1.1473940999712795,26.111111111111114,1.132544499821961,[0.4648148148148148],[-0.43796296296296294],[1],[0],[0],[0.33613310009241104],['image'],1.3199867680668831e-05,,,P11,001,2023-04-14_15h21.45.504,Human_uncanny,2022.2.5,59.91396359065018,
Human,LSF,Stimuli For Psychopy/Human/matched-8-cpi-low-Rafd090_24_Caucasian_male_neutral_frontal.jpg,matched-8-cpi-low-Rafd090_24_Caucasian_male_neutral_frontal.jpg,0,32,32,6,,,,,,,180.0544072999619,180.0544072999619,,,1,[0.0004279001150280237],[0.9837415001820773],181.05190349998884,181.05190349998884,181.80219829990529,0.7456386999692768,12.592592592592595,0.7279968000948429,[0.3435185185185185],[-0.3990740740740741],[1],[0],[0],[0.5503847000654787],['image'],1.3800105080008507e-05,,,P11,001,2023-04-14_15h21.45.504,Human_uncanny,2022.2.5,59.91396359065018,
Human,LSF,Stimuli For Psychopy/Human/matched-8-cpi-low-Rafd090_19_Caucasian_female_neutral_frontal.jpg,matched-8-cpi-low-Rafd090_19_Caucasian_female_neutral_frontal.jpg,0,33,33,4,,,,,,,183.85456539993174,183.85456539993174,,,1,[0.013096600072458386],[0.9989411002025008],184.85437420010567,184.85437420010567,185.50429630000144,0.6486700000241399,16.296296296296305,0.6334172999486327,[0.3416666666666667],[-0.4009259259259259],[1],[0],[0],[0.46913430001586676],['image'],1.2499978765845299e-05,,,P11,001,2023-04-14_15h21.45.504,Human_uncanny,2022.2.5,59.91396359065018,
Human,BSF,Stimuli For Psychopy/Human/matched-Rafd090_37_Caucasian_female_neutral_frontal.jpg,matched-Rafd090_37_Caucasian_female_neutral_frontal.jpg,0,34,34,44,,,,,,,187.46891289995983,187.46891289995983,188.4689142999705,188.4689142999705,1,[0.0006019999273121357],[0.9942590999417007],188.4689142999705,188.4689142999705,189.08545950008556,0.612920300103724,18.888888888888886,0.5987776000984013,[0.412962962962963],[-0.3824074074074074],[1],[0],[0],[0.3997374000027776],['image'],1.3199867680668831e-05,,,P11,001,2023-04-14_15h21.45.504,Human_uncanny,2022.2.5,59.91396359065018,
Human,LSF,Stimuli For Psychopy/Human/matched-8-cpi-low-Rafd090_32_Caucasian_female_neutral_frontal.jpg,matched-8-cpi-low-Rafd090_32_Caucasian_female_neutral_frontal.jpg,0,35,35,11,,,,,,,190.97096970002167,190.97096970002167,191.96864530001767,191.96864530001767,1,[0.0006065000779926777],[0.9970444000791758],191.96864530001767,191.96864530001767,192.6021352999378,0.6172464999835938,10.000000000000014,0.6141093999613076,[0.42407407407407405],[-0.4148148148148148],[1],[0],[0],[0.41699549998156726],['image'],1.7800135537981987e-05,,,P11,001,2023-04-14_15h21.45.504,Human_uncanny,2022.2.5,59.91396359065018,
Human,HSF,Stimuli For Psychopy/Human/matched-32-cpi-low-Rafd090_18_Caucasian_female_neutral_frontal.jpg,matched-32-cpi-low-Rafd090_18_Caucasian_female_neutral_frontal.jpg,0,36,36,18,,,,,,,194.51871119998395,194.51871119998395,195.51860020007007,195.51860020007007,1,[0.013274699915200472],[1.0132026998326182],195.51860020007007,195.51860020007007,196.03750850004144,0.5124484000261873,11.111111111111114,0.49876179988496006,[0.4925925925925926],[-0.4444444444444444],[1],[0],[0],[0.4363480999600142],['image'],1.3599870726466179e-05,,,P11,001,2023-04-14_15h21.45.504,Human_uncanny,2022.2.5,59.91396359065018,
Human,LSF,Stimuli For Psychopy/Human/matched-8-cpi-low-Rafd090_33_Caucasian_male_neutral_frontal.jpg,matched-8-cpi-low-Rafd090_33_Caucasian_male_neutral_frontal.jpg,0,37,37,12,,,,,,,197.9684349000454,197.9684349000454,198.9683177000843,198.9683177000843,1,[0.013030099915340543],[1.0132295999210328],198.9683177000843,198.9683177000843,199.3349788999185,0.3622255998197943,10.000000000000014,0.3500176998786628,[0.5],[-0.4083333333333333],[1],[0],[0],[0.3836182998493314],['image'],1.3299984857439995e-05,,,P11,001,2023-04-14_15h21.45.504,Human_uncanny,2022.2.5,59.91396359065018,
Human,HSF,Stimuli For Psychopy/Human/matched-32-cpi-low-Rafd090_26_Caucasian_female_neutral_frontal.jpg,matched-32-cpi-low-Rafd090_26_Caucasian_female_neutral_frontal.jpg,0,38,38,22,,,,,,,201.20400250004604,201.20400250004604,202.20186899998225,202.20186899998225,1,[0.00046829995699226856],[0.9963866998441517],202.20186899998225,202.20186899998225,202.68741080001928,0.46500329999253154,19.259259259259267,0.465826699975878,[0.43148148148148147],[-0.4074074074074074],[1],[0],[0],[0.5002060998231173],['image'],1.5700003132224083e-05,,,P11,001,2023-04-14_15h21.45.504,Human_uncanny,2022.2.5,59.91396359065018,
Human,LSF,Stimuli For Psychopy/Human/matched-8-cpi-low-Rafd090_01_Caucasian_female_neutral_frontal.jpg,matched-8-cpi-low-Rafd090_01_Caucasian_female_neutral_frontal.jpg,0,39,39,0,,,,,,,204.68494930001907,204.68494930001907,,,1,[0.014094300102442503],[0.9996269999537617],205.6874796000775,205.6874796000775,206.27361349994317,0.5875214000698179,12.962962962962948,0.5710513999219984,[0.4361111111111111],[-0.4101851851851852],[1],[0],[0],[0.3133159999269992],['image'],1.1699972674250603e-05,,,P11,001,2023-04-14_15h21.45.504,Human_uncanny,2022.2.5,59.91396359065018,
Human,HSF,Stimuli For Psychopy/Human/matched-32-cpi-low-Rafd090_19_Caucasian_female_neutral_frontal.jpg,matched-32-cpi-low-Rafd090_19_Caucasian_female_neutral_frontal.jpg,0,40,40,19,,,,,,,208.08718289993703,208.08718289993703,209.08491600002162,209.08491600002162,1,[0.012888299999758601],[1.012764499988407],209.08491600002162,209.08491600002162,209.70176399988122,0.6129560999106616,15.555555555555543,0.5974489999935031,[0.49722222222222223],[-0.4185185185185185],[1],[0],[0],[0.318340300116688],['image'],1.309998333454132e-05,,,P11,001,2023-04-14_15h21.45.504,Human_uncanny,2022.2.5,59.91396359065018,
Human,HSF,Stimuli For Psychopy/Human/matched-32-cpi-low-Rafd090_22_Caucasian_female_neutral_frontal.jpg,matched-32-cpi-low-Rafd090_22_Caucasian_female_neutral_frontal.jpg,0,41,41,20,,,,,,,211.50704609998502,211.50704609998502,212.51830999995582,212.51830999995582,1,[0.0007546001579612494],[1.0079159999731928],212.51830999995582,212.51830999995582,213.40152280009352,0.8794925999827683,23.703703703703695,0.8655046001076698,[0.375],[-0.38981481481481484],[1],[0],[0],[0.3862165999598801],['image'],1.2699980288743973e-05,,,P11,001,2023-04-14_15h21.45.504,Human_uncanny,2022.2.5,59.91396359065018,
Human,BSF,Stimuli For Psychopy/Human/matched-Rafd090_26_Caucasian_female_neutral_frontal.jpg,matched-Rafd090_26_Caucasian_female_neutral_frontal.jpg,0,42,42,37,,,,,,,215.28731929999776,215.28731929999776,216.2850031000562,216.2850031000562,1,[0.013663300080224872],[1.0134562000166625],216.2850031000562,216.2850031000562,216.90130069991574,0.6119860000908375,17.037037037037024,0.5968704998958856,[0.4564814814814815],[-0.40555555555555556],[1],[0],[0],[0.35048849997110665],['image'],1.4299992471933365e-05,,,P11,001,2023-04-14_15h21.45.504,Human_uncanny,2022.2.5,59.91396359065018,
Human,BSF,Stimuli For Psychopy/Human/matched-Rafd090_30_Caucasian_male_neutral_frontal.jpg,matched-Rafd090_30_Caucasian_male_neutral_frontal.jpg,0,43,43,39,,,,,,,218.7537724999711,218.7537724999711,,,3,"[0.013356799958273768, 0.3816903999540955, 0.4651573000010103]","[0.34693620004691184, 0.432675400050357, 0.9987335000187159]",219.75364689994603,219.75364689994603,220.3372031999752,0.5813905999530107,21.48148148148148,0.5664134998805821,[0.4675925925925926],[-0.412962962962963],[1],[0],[0],[0.48550880001857877],['image'],1.550000160932541e-05,,,P11,001,2023-04-14_15h21.45.504,Human_uncanny,2022.2.5,59.91396359065018,
Human,LSF,Stimuli For Psychopy/Human/matched-8-cpi-low-Rafd090_18_Caucasian_female_neutral_frontal.jpg,matched-8-cpi-low-Rafd090_18_Caucasian_female_neutral_frontal.jpg,0,44,44,3,,,,,,,222.3202575999312,222.3202575999312,,,1,[0.014097200008109212],[1.011256500147283],223.33474489999935,223.33474489999935,224.23690599994734,0.914751999778673,12.407407407407405,0.8838376000057906,[0.49444444444444446],[-0.43148148148148147],[1],[0],[0],[0.5506869000382721],['image'],1.6399892047047615e-05,,,P11,001,2023-04-14_15h21.45.504,Human_uncanny,2022.2.5,59.91396359065018,
,,,,,,,,,,,,,,,,,,,,,,,,,,,,,,,,,,,0.014324299991130829,1.0288917999714613,,,,,,,
