Type,Spatial_Frequency,filepath,file_name,human_trials.thisRepN,human_trials.thisTrialN,human_trials.thisN,human_trials.thisIndex,instruction.started,key_resp.started,key_resp.keys,key_resp.rt,etRecord.started,etRecord.stopped,Human_image.started,roi.started,Human_image.stopped,roi.stopped,roi.numLooks,roi.timesOn,roi.timesOff,image_2.started,M_H_likeness_slider.response,M_H_likeness_slider.rt,ISI_2.started,etRecord_2.started,etRecord_2.stopped,participant,session,date,expName,psychopyVersion,frameRate,
,,,,,,,,32.312967399993795,32.312967399993795,space,0.994482699999935,,,,,,,,,,,,,,,,VYV,001,2023-04-16_22h02.18.230,Human_uncanny,2022.2.5,59.77650758961443,
Human,LSF,Stimuli For Psychopy/Human/matched-8-cpi-low-Rafd090_33_Caucasian_male_neutral_frontal.jpg,matched-8-cpi-low-Rafd090_33_Caucasian_male_neutral_frontal.jpg,0,0,0,12,,,,,1.579998934175819e-05,1.579998934175819e-05,34.32893740000145,34.32893740000145,35.32809690000431,35.32809690000431,1,[0.0006030999938957393],[0.9901833000039915],37.510126299996045,56.2962962962963,2.164068500002031,1.410000550094992e-05,,,VYV,001,2023-04-16_22h02.18.230,Human_uncanny,2022.2.5,59.77650758961443,
Human,LSF,Stimuli For Psychopy/Human/matched-8-cpi-low-Rafd090_30_Caucasian_male_neutral_frontal.jpg,matched-8-cpi-low-Rafd090_30_Caucasian_male_neutral_frontal.jpg,0,1,1,9,,,,,,,40.6269578999927,40.6269578999927,,,1,[0.013011199989705347],[0.9983319000020856],42.17676339999889,66.48148148148148,0.5313877000007778,1.5999990864656866e-05,,,VYV,001,2023-04-16_22h02.18.230,Human_uncanny,2022.2.5,59.77650758961443,
Human,HSF,Stimuli For Psychopy/Human/matched-32-cpi-low-Rafd090_36_Caucasian_male_neutral_frontal.jpg,matched-32-cpi-low-Rafd090_36_Caucasian_male_neutral_frontal.jpg,0,2,2,28,,,,,,,44.10799419999239,44.10799419999239,45.112464099991485,45.112464099991485,1,[0.00038500000664498657],[0.9423446000000695],45.59332289999293,67.77777777777779,0.46417449999717064,1.550000160932541e-05,,,VYV,001,2023-04-16_22h02.18.230,Human_uncanny,2022.2.5,59.77650758961443,
Human,BSF,Stimuli For Psychopy/Human/matched-Rafd090_19_Caucasian_female_neutral_frontal.jpg,matched-Rafd090_19_Caucasian_female_neutral_frontal.jpg,0,3,3,34,,,,,,,47.474558500005514,47.474558500005514,48.47494729999744,48.47494729999744,1,[0.0004693999944720417],[0.8428170999977738],48.95988199999556,92.68518518518518,0.4625918000092497,1.2999997125007212e-05,,,VYV,001,2023-04-16_22h02.18.230,Human_uncanny,2022.2.5,59.77650758961443,
Human,LSF,Stimuli For Psychopy/Human/matched-8-cpi-low-Rafd090_28_Caucasian_male_neutral_frontal.jpg,matched-8-cpi-low-Rafd090_28_Caucasian_male_neutral_frontal.jpg,0,4,4,8,,,,,,,51.062020800003665,51.062020800003665,52.06206559999555,52.06206559999555,1,[0.000375300005543977],[0.8957148000044981],52.55974789999891,67.68518518518518,0.48045589998946525,1.270000939257443e-05,,,VYV,001,2023-04-16_22h02.18.230,Human_uncanny,2022.2.5,59.77650758961443,
Human,LSF,Stimuli For Psychopy/Human/matched-8-cpi-low-Rafd090_19_Caucasian_female_neutral_frontal.jpg,matched-8-cpi-low-Rafd090_19_Caucasian_female_neutral_frontal.jpg,0,5,5,4,,,,,,,54.461986099995556,54.461986099995556,55.461962200002745,55.461962200002745,1,[0.0008016000065254048],[0.9790669999929378],55.876457599995774,77.22222222222221,0.3956309999921359,1.2299991794861853e-05,,,VYV,001,2023-04-16_22h02.18.230,Human_uncanny,2022.2.5,59.77650758961443,
Human,BSF,Stimuli For Psychopy/Human/matched-Rafd090_26_Caucasian_female_neutral_frontal.jpg,matched-Rafd090_26_Caucasian_female_neutral_frontal.jpg,0,6,6,37,,,,,,,57.96246529999189,57.96246529999189,58.961730199996964,58.961730199996964,1,[0.0005095000087749213],[0.6765802000008989],59.47642979999364,96.85185185185186,0.4976327000040328,1.2599994079209864e-05,,,VYV,001,2023-04-16_22h02.18.230,Human_uncanny,2022.2.5,59.77650758961443,
Human,BSF,Stimuli For Psychopy/Human/matched-Rafd090_22_Caucasian_female_neutral_frontal.jpg,matched-Rafd090_22_Caucasian_female_neutral_frontal.jpg,0,7,7,35,,,,,,,61.39105419999396,61.39105419999396,62.39514569999301,62.39514569999301,1,[0.0004948999994667247],[0.44239519999246113],62.80988620000426,82.96296296296296,0.3971700999973109,1.5300000086426735e-05,,,VYV,001,2023-04-16_22h02.18.230,Human_uncanny,2022.2.5,59.77650758961443,
Human,LSF,Stimuli For Psychopy/Human/matched-8-cpi-low-Rafd090_24_Caucasian_male_neutral_frontal.jpg,matched-8-cpi-low-Rafd090_24_Caucasian_male_neutral_frontal.jpg,0,8,8,6,,,,,,,64.69515919999685,64.69515919999685,65.69511450000573,65.69511450000573,2,"[0.00042640000174287707, 0.2624482000101125]","[0.22952780000923667, 0.8793547000095714]",66.14303730000393,79.16666666666667,0.4306778000027407,1.309999788645655e-05,,,VYV,001,2023-04-16_22h02.18.230,Human_uncanny,2022.2.5,59.77650758961443,
Human,HSF,Stimuli For Psychopy/Human/matched-32-cpi-low-Rafd090_26_Caucasian_female_neutral_frontal.jpg,matched-32-cpi-low-Rafd090_26_Caucasian_female_neutral_frontal.jpg,0,9,9,22,,,,,,,67.94278969999868,67.94278969999868,68.94466660000035,68.94466660000035,1,[0.0004689999914262444],[0.9919721999904141],69.37611739999556,84.62962962962963,0.41361390000383835,1.3699987903237343e-05,,,VYV,001,2023-04-16_22h02.18.230,Human_uncanny,2022.2.5,59.77650758961443,
Human,BSF,Stimuli For Psychopy/Human/matched-Rafd090_24_Caucasian_male_neutral_frontal.jpg,matched-Rafd090_24_Caucasian_male_neutral_frontal.jpg,0,10,10,36,,,,,,,71.25900540000293,71.25900540000293,72.26251420000335,72.26251420000335,1,[0.00040699999954085797],[0.7748627999972086],72.71159239999542,83.51851851851852,0.4330080000072485,1.2600008631125093e-05,,,VYV,001,2023-04-16_22h02.18.230,Human_uncanny,2022.2.5,59.77650758961443,
Human,BSF,Stimuli For Psychopy/Human/matched-Rafd090_18_Caucasian_female_neutral_frontal.jpg,matched-Rafd090_18_Caucasian_female_neutral_frontal.jpg,0,11,11,33,,,,,,,74.80873609999253,74.80873609999253,75.81141890000436,75.81141890000436,1,[0.0004393999988678843],[0.8919814999972004],76.29127940000035,91.85185185185185,0.4632302999962121,1.2999997125007212e-05,,,VYV,001,2023-04-16_22h02.18.230,Human_uncanny,2022.2.5,59.77650758961443,
Human,BSF,Stimuli For Psychopy/Human/matched-Rafd090_33_Caucasian_male_neutral_frontal.jpg,matched-Rafd090_33_Caucasian_male_neutral_frontal.jpg,0,12,12,42,,,,,,,78.14212319999933,78.14212319999933,79.14472939999541,79.14472939999541,1,[0.0005437000072561204],[0.9259843000036199],79.74255239999911,95.37037037037037,0.579400100003113,1.379998866468668e-05,,,VYV,001,2023-04-16_22h02.18.230,Human_uncanny,2022.2.5,59.77650758961443,
Human,HSF,Stimuli For Psychopy/Human/matched-32-cpi-low-Rafd090_28_Caucasian_male_neutral_frontal.jpg,matched-32-cpi-low-Rafd090_28_Caucasian_male_neutral_frontal.jpg,0,13,13,23,,,,,,,81.57575679999718,81.57575679999718,82.57788329999312,82.57788329999312,1,[0.0004808999947272241],[0.8248039999889443],83.0924909000023,82.68518518518519,0.497066799987806,1.2599994079209864e-05,,,VYV,001,2023-04-16_22h02.18.230,Human_uncanny,2022.2.5,59.77650758961443,
Human,HSF,Stimuli For Psychopy/Human/matched-32-cpi-low-Rafd090_22_Caucasian_female_neutral_frontal.jpg,matched-32-cpi-low-Rafd090_22_Caucasian_female_neutral_frontal.jpg,0,14,14,20,,,,,,,84.9411672999995,84.9411672999995,85.94437959999777,85.94437959999777,1,[0.0003752000047825277],[0.9916629000072135],86.49241570000595,78.98148148148148,0.5311702000035439,1.4099990949034691e-05,,,VYV,001,2023-04-16_22h02.18.230,Human_uncanny,2022.2.5,59.77650758961443,
Human,HSF,Stimuli For Psychopy/Human/matched-32-cpi-low-Rafd090_32_Caucasian_female_neutral_frontal.jpg,matched-32-cpi-low-Rafd090_32_Caucasian_female_neutral_frontal.jpg,0,15,15,26,,,,,,,88.49468319999869,88.49468319999869,89.5089469999948,89.5089469999948,1,[0.0003964000061387196],[1.007687800010899],89.94240960000025,77.22222222222221,0.41548660000262316,1.2500007869675756e-05,,,VYV,001,2023-04-16_22h02.18.230,Human_uncanny,2022.2.5,59.77650758961443,
Human,HSF,Stimuli For Psychopy/Human/matched-32-cpi-low-Rafd090_31_Caucasian_female_neutral_frontal.jpg,matched-32-cpi-low-Rafd090_31_Caucasian_female_neutral_frontal.jpg,0,16,16,25,,,,,,,91.70849429999362,91.70849429999362,92.71069239999633,92.71069239999633,1,[0.0004786000063177198],[0.9921727000037208],93.44219649999286,74.35185185185185,0.7137217999988934,1.2799995602108538e-05,,,VYV,001,2023-04-16_22h02.18.230,Human_uncanny,2022.2.5,59.77650758961443,
Human,HSF,Stimuli For Psychopy/Human/matched-32-cpi-low-Rafd090_33_Caucasian_male_neutral_frontal.jpg,matched-32-cpi-low-Rafd090_33_Caucasian_male_neutral_frontal.jpg,0,17,17,27,,,,,,,95.20700749999378,95.20700749999378,96.20882559999882,96.20882559999882,1,[0.00042100000428035855],[0.9762199000106193],96.59218079999846,74.53703703703704,0.36426570000185166,1.5199999324977398e-05,,,VYV,001,2023-04-16_22h02.18.230,Human_uncanny,2022.2.5,59.77650758961443,
Human,LSF,Stimuli For Psychopy/Human/matched-8-cpi-low-Rafd090_37_Caucasian_female_neutral_frontal.jpg,matched-8-cpi-low-Rafd090_37_Caucasian_female_neutral_frontal.jpg,0,18,18,14,,,,,,,98.394444199992,98.394444199992,99.39432300000044,99.39432300000044,1,[0.0012141000042902306],[0.8790077000012388],99.90725509999902,64.90740740740742,1.6805503000068711,1.3199998647905886e-05,,,VYV,001,2023-04-16_22h02.18.230,Human_uncanny,2022.2.5,59.77650758961443,
Human,BSF,Stimuli For Psychopy/Human/matched-Rafd090_30_Caucasian_male_neutral_frontal.jpg,matched-Rafd090_30_Caucasian_male_neutral_frontal.jpg,0,19,19,39,,,,,,,103.06131249999453,103.06131249999453,104.06066800000553,104.06066800000553,3,"[0.00907559999905061, 0.15905539999948815, 0.6923591999948258]","[0.09278510000149254, 0.6421216000017012, 0.8920185000024503]",104.44423949999327,81.66666666666667,0.3668410000100266,1.9500002963468432e-05,,,VYV,001,2023-04-16_22h02.18.230,Human_uncanny,2022.2.5,59.77650758961443,
Human,LSF,Stimuli For Psychopy/Human/matched-8-cpi-low-Rafd090_12_Caucasian_female_neutral_frontal.jpg,matched-8-cpi-low-Rafd090_12_Caucasian_female_neutral_frontal.jpg,0,20,20,1,,,,,,,106.2942289999919,106.2942289999919,,,1,[0.012843900010921061],[0.9982142000080785],108.07525490000262,63.24074074074074,0.764453700001468,1.5300000086426735e-05,,,VYV,001,2023-04-16_22h02.18.230,Human_uncanny,2022.2.5,59.77650758961443,
Human,BSF,Stimuli For Psychopy/Human/matched-Rafd090_37_Caucasian_female_neutral_frontal.jpg,matched-Rafd090_37_Caucasian_female_neutral_frontal.jpg,0,21,21,44,,,,,,,110.04005130000587,110.04005130000587,111.04406139999628,111.04406139999628,1,[0.0004364000051282346],[0.9930147999984911],111.8084530000051,74.44444444444444,0.7471350999985589,1.2799995602108538e-05,,,VYV,001,2023-04-16_22h02.18.230,Human_uncanny,2022.2.5,59.77650758961443,
Human,LSF,Stimuli For Psychopy/Human/matched-8-cpi-low-Rafd090_36_Caucasian_male_neutral_frontal.jpg,matched-8-cpi-low-Rafd090_36_Caucasian_male_neutral_frontal.jpg,0,22,22,13,,,,,,,113.66078039999411,113.66078039999411,114.66068020000239,114.66068020000239,2,"[0.00035820000630337745, 0.9457016000087606]","[0.8457747000065865, 0.9958818000013707]",115.17512970000098,64.16666666666666,0.49676320000435226,1.3900003978051245e-05,,,VYV,001,2023-04-16_22h02.18.230,Human_uncanny,2022.2.5,59.77650758961443,
Human,HSF,Stimuli For Psychopy/Human/matched-32-cpi-low-Rafd090_18_Caucasian_female_neutral_frontal.jpg,matched-32-cpi-low-Rafd090_18_Caucasian_female_neutral_frontal.jpg,0,23,23,18,,,,,,,117.05755349999527,117.05755349999527,118.06022250000387,118.06022250000387,3,"[0.0003964999923482537, 0.1588056000036886, 0.6088779999990948]","[0.0920475000020815, 0.5922361999982968, 0.9922023999970406]",118.7416646000056,72.4074074074074,0.6651638000039384,1.2600008631125093e-05,,,VYV,001,2023-04-16_22h02.18.230,Human_uncanny,2022.2.5,59.77650758961443,
Human,LSF,Stimuli For Psychopy/Human/matched-8-cpi-low-Rafd090_22_Caucasian_female_neutral_frontal.jpg,matched-8-cpi-low-Rafd090_22_Caucasian_female_neutral_frontal.jpg,0,24,24,5,,,,,,,120.79396270000143,120.79396270000143,121.7938942000037,121.7938942000037,1,[0.00036920000275131315],[0.9961755000113044],122.30664189999516,66.94444444444446,0.49697659999947064,1.3200013199821115e-05,,,VYV,001,2023-04-16_22h02.18.230,Human_uncanny,2022.2.5,59.77650758961443,
Human,HSF,Stimuli For Psychopy/Human/matched-32-cpi-low-Rafd090_01_Caucasian_female_neutral_frontal.jpg,matched-32-cpi-low-Rafd090_01_Caucasian_female_neutral_frontal.jpg,0,25,25,15,,,,,,,124.3732006999926,124.3732006999926,125.3769570000004,125.3769570000004,1,[0.0007441000052494928],[0.9924148999998579],126.02502869999444,68.24074074074073,0.6293951999978162,1.309999788645655e-05,,,VYV,001,2023-04-16_22h02.18.230,Human_uncanny,2022.2.5,59.77650758961443,
Human,LSF,Stimuli For Psychopy/Human/matched-8-cpi-low-Rafd090_32_Caucasian_female_neutral_frontal.jpg,matched-8-cpi-low-Rafd090_32_Caucasian_female_neutral_frontal.jpg,0,26,26,11,,,,,,,128.01042350000353,128.01042350000353,129.01033499999903,129.01033499999903,1,[0.00044410000555217266],[0.9960990999970818],129.40809609999997,67.77777777777779,0.3806695000093896,1.3299999409355223e-05,,,VYV,001,2023-04-16_22h02.18.230,Human_uncanny,2022.2.5,59.77650758961443,
Human,LSF,Stimuli For Psychopy/Human/matched-8-cpi-low-Rafd090_18_Caucasian_female_neutral_frontal.jpg,matched-8-cpi-low-Rafd090_18_Caucasian_female_neutral_frontal.jpg,0,27,27,3,,,,,,,131.39414580000448,131.39414580000448,132.39361369999824,132.39361369999824,1,[0.00037539999175351113],[0.9620209999993676],133.10802349999722,73.98148148148148,0.6969103000010364,1.2300006346777081e-05,,,VYV,001,2023-04-16_22h02.18.230,Human_uncanny,2022.2.5,59.77650758961443,
Human,BSF,Stimuli For Psychopy/Human/matched-Rafd090_01_Caucasian_female_neutral_frontal.jpg,matched-Rafd090_01_Caucasian_female_neutral_frontal.jpg,0,28,28,30,,,,,,,134.95828459999757,134.95828459999757,135.96030550000432,135.96030550000432,1,[0.0003876000118907541],[0.8918768000003183],136.52478330000304,96.57407407407408,0.5455416999902809,1.3700002455152571e-05,,,VYV,001,2023-04-16_22h02.18.230,Human_uncanny,2022.2.5,59.77650758961443,
Human,LSF,Stimuli For Psychopy/Human/matched-8-cpi-low-Rafd090_01_Caucasian_female_neutral_frontal.jpg,matched-8-cpi-low-Rafd090_01_Caucasian_female_neutral_frontal.jpg,0,29,29,0,,,,,,,138.42691149999155,138.42691149999155,139.42677710000135,139.42677710000135,1,[0.0004535000043688342],[0.9958111000014469],139.95803739999246,75.55555555555556,0.514085700007854,1.340000017080456e-05,,,VYV,001,2023-04-16_22h02.18.230,Human_uncanny,2022.2.5,59.77650758961443,
Human,LSF,Stimuli For Psychopy/Human/matched-8-cpi-low-Rafd090_31_Caucasian_female_neutral_frontal.jpg,matched-8-cpi-low-Rafd090_31_Caucasian_female_neutral_frontal.jpg,0,30,30,10,,,,,,,142.06012919999193,142.06012919999193,143.06003639999835,143.06003639999835,3,"[0.0005021000106353313, 0.4956428000004962, 0.6290373000083491]","[0.3792923000000883, 0.5624862999975448, 0.9957608999975491]",143.50777909999306,67.87037037037037,0.4297823000088101,1.3800003216601908e-05,,,VYV,001,2023-04-16_22h02.18.230,Human_uncanny,2022.2.5,59.77650758961443,
Human,BSF,Stimuli For Psychopy/Human/matched-Rafd090_28_Caucasian_male_neutral_frontal.jpg,matched-Rafd090_28_Caucasian_male_neutral_frontal.jpg,0,31,31,38,,,,,,,145.4891454000026,145.4891454000026,146.49327639999683,146.49327639999683,1,[0.0004577000072458759],[0.9929606000077911],147.17438989999937,65.46296296296296,0.6636996999877738,1.720000000204891e-05,,,VYV,001,2023-04-16_22h02.18.230,Human_uncanny,2022.2.5,59.77650758961443,
Human,LSF,Stimuli For Psychopy/Human/matched-8-cpi-low-Rafd090_26_Caucasian_female_neutral_frontal.jpg,matched-8-cpi-low-Rafd090_26_Caucasian_female_neutral_frontal.jpg,0,32,32,7,,,,,,,149.04325970000355,149.04325970000355,150.04330589999154,150.04330589999154,1,[0.0003875999973388389],[0.9958827000082238],150.45810869999696,67.5925925925926,0.3970956999983173,1.1999989510513842e-05,,,VYV,001,2023-04-16_22h02.18.230,Human_uncanny,2022.2.5,59.77650758961443,
Human,HSF,Stimuli For Psychopy/Human/matched-32-cpi-low-Rafd090_30_Caucasian_male_neutral_frontal.jpg,matched-32-cpi-low-Rafd090_30_Caucasian_male_neutral_frontal.jpg,0,33,33,24,,,,,,,152.37296939999214,152.37296939999214,153.37408959999448,153.37408959999448,1,[0.0004099999932805076],[0.9897649000049569],153.92279460000282,67.12962962962963,0.5326400000049034,1.5700003132224083e-05,,,VYV,001,2023-04-16_22h02.18.230,Human_uncanny,2022.2.5,59.77650758961443,
Human,BSF,Stimuli For Psychopy/Human/matched-Rafd090_36_Caucasian_male_neutral_frontal.jpg,matched-Rafd090_36_Caucasian_male_neutral_frontal.jpg,0,34,34,43,,,,,,,155.84050659999775,155.84050659999775,156.84311810000509,156.84311810000509,1,[0.00045029999455437064],[0.809392499999376],157.24100710000494,80.27777777777779,0.38068879999627825,1.2400007108226418e-05,,,VYV,001,2023-04-16_22h02.18.230,Human_uncanny,2022.2.5,59.77650758961443,
Human,HSF,Stimuli For Psychopy/Human/matched-32-cpi-low-Rafd090_24_Caucasian_male_neutral_frontal.jpg,matched-32-cpi-low-Rafd090_24_Caucasian_male_neutral_frontal.jpg,0,35,35,21,,,,,,,159.10569670000405,159.10569670000405,160.10941000000457,160.10941000000457,5,"[0.0003800000122282654, 0.4423257000016747, 0.5590104000002611, 0.9089822000096319, 0.9589006000023801]","[0.42568490000849124, 0.5423511000117287, 0.8253048000042327, 0.942471000002115, 0.9926721000083489]",160.80744219999178,70.46296296296296,0.6792141999903833,1.270000939257443e-05,,,VYV,001,2023-04-16_22h02.18.230,Human_uncanny,2022.2.5,59.77650758961443,
Human,BSF,Stimuli For Psychopy/Human/matched-Rafd090_31_Caucasian_female_neutral_frontal.jpg,matched-Rafd090_31_Caucasian_female_neutral_frontal.jpg,0,36,36,40,,,,,,,162.93901590000314,162.93901590000314,163.94284279999556,163.94284279999556,1,[0.0004802999901585281],[0.9927681999979541],164.6073330999934,98.51851851851852,0.6471463999914704,1.4899997040629387e-05,,,VYV,001,2023-04-16_22h02.18.230,Human_uncanny,2022.2.5,59.77650758961443,
Human,BSF,Stimuli For Psychopy/Human/matched-Rafd090_32_Caucasian_female_neutral_frontal.jpg,matched-Rafd090_32_Caucasian_female_neutral_frontal.jpg,0,37,37,41,,,,,,,166.62239789999148,166.62239789999148,167.62624610000057,167.62624610000057,3,"[0.000538399996003136, 0.026441499998327345, 0.0932590999873355]","[0.005734399994253181, 0.0763023999897996, 0.8563071999960812]",168.02393470000243,95.92592592592592,0.38122959999600425,1.270000939257443e-05,,,VYV,001,2023-04-16_22h02.18.230,Human_uncanny,2022.2.5,59.77650758961443,
Human,HSF,Stimuli For Psychopy/Human/matched-32-cpi-low-Rafd090_37_Caucasian_female_neutral_frontal.jpg,matched-32-cpi-low-Rafd090_37_Caucasian_female_neutral_frontal.jpg,0,38,38,29,,,,,,,170.05538619999425,170.05538619999425,171.0591698999924,171.0591698999924,1,[0.0008253000123659149],[0.9929334000044037],171.54063109999697,68.05555555555556,0.46366729999135714,1.3999990187585354e-05,,,VYV,001,2023-04-16_22h02.18.230,Human_uncanny,2022.2.5,59.77650758961443,
Human,BSF,Stimuli For Psychopy/Human/matched-Rafd090_16_Caucasian_female_neutral_frontal.jpg,matched-Rafd090_16_Caucasian_female_neutral_frontal.jpg,0,39,39,32,,,,,,,173.42599259999406,173.42599259999406,174.42586129999836,174.42586129999836,1,[0.000397100011468865],[0.9929214000003412],174.94046450000315,89.53703703703704,0.49613010000030044,1.3600001693703234e-05,,,VYV,001,2023-04-16_22h02.18.230,Human_uncanny,2022.2.5,59.77650758961443,
Human,HSF,Stimuli For Psychopy/Human/matched-32-cpi-low-Rafd090_12_Caucasian_female_neutral_frontal.jpg,matched-32-cpi-low-Rafd090_12_Caucasian_female_neutral_frontal.jpg,0,40,40,16,,,,,,,177.12361779999628,177.12361779999628,178.12570449999475,178.12570449999475,1,[0.0003608999977586791],[0.9916739000036614],178.82405379999545,76.75925925925927,0.6807485000026645,1.2899996363557875e-05,,,VYV,001,2023-04-16_22h02.18.230,Human_uncanny,2022.2.5,59.77650758961443,
Human,HSF,Stimuli For Psychopy/Human/matched-32-cpi-low-Rafd090_16_Caucasian_female_neutral_frontal.jpg,matched-32-cpi-low-Rafd090_16_Caucasian_female_neutral_frontal.jpg,0,41,41,17,,,,,,,180.70569639999303,180.70569639999303,181.70901229999436,181.70901229999436,2,"[0.00039090000791475177, 0.8252133000059985]","[0.8087303000065731, 0.9920943000033731]",182.39029969999683,75.18518518518518,0.6642645999963861,1.2400007108226418e-05,,,VYV,001,2023-04-16_22h02.18.230,Human_uncanny,2022.2.5,59.77650758961443,
Human,HSF,Stimuli For Psychopy/Human/matched-32-cpi-low-Rafd090_19_Caucasian_female_neutral_frontal.jpg,matched-32-cpi-low-Rafd090_19_Caucasian_female_neutral_frontal.jpg,0,42,42,19,,,,,,,184.30664729999262,184.30664729999262,185.3087843999965,185.3087843999965,1,[0.00043259999074507505],[0.992289100002381],185.97361760000058,71.57407407407408,0.6480717999947956,1.2099990271963179e-05,,,VYV,001,2023-04-16_22h02.18.230,Human_uncanny,2022.2.5,59.77650758961443,
Human,LSF,Stimuli For Psychopy/Human/matched-8-cpi-low-Rafd090_16_Caucasian_female_neutral_frontal.jpg,matched-8-cpi-low-Rafd090_16_Caucasian_female_neutral_frontal.jpg,0,43,43,2,,,,,,,187.83957329999248,187.83957329999248,188.84248779999325,188.84248779999325,2,"[0.00037779999547638, 0.6591436999879079]","[0.42620579998765606, 0.9923658999905456]",189.3902078999963,67.5925925925926,0.5308351999992738,1.650000922381878e-05,,,VYV,001,2023-04-16_22h02.18.230,Human_uncanny,2022.2.5,59.77650758961443,
Human,BSF,Stimuli For Psychopy/Human/matched-Rafd090_12_Caucasian_female_neutral_frontal.jpg,matched-Rafd090_12_Caucasian_female_neutral_frontal.jpg,0,44,44,31,,,,,,,191.23987239999406,191.23987239999406,192.24238369999512,192.24238369999512,2,"[0.025793599997996353, 0.626068600002327]","[0.3758516999951098, 0.9592769000009866]",192.90681010000117,100,0.6455473999958485,1.440000778529793e-05,,,VYV,001,2023-04-16_22h02.18.230,Human_uncanny,2022.2.5,59.77650758961443,
,,,,,,,,,,,,,,,,,,,,,,,,,5.330001295078546e-05,1.0022274000075413,,,,,,,
