Type,Spatial_Frequency,filepath,file_name,human_trials.thisRepN,human_trials.thisTrialN,human_trials.thisN,human_trials.thisIndex,instruction.started,key_resp.started,key_resp.keys,key_resp.rt,etRecord.started,etRecord.stopped,Human_image.started,roi.started,roi.numLooks,roi.timesOn,roi.timesOff,image_2.started,M_H_likeness_slider.response,M_H_likeness_slider.rt,ISI_2.started,Human_image.stopped,roi.stopped,etRecord_2.started,etRecord_2.stopped,participant,session,date,expName,psychopyVersion,frameRate,
,,,,,,,,26.730033300002106,26.730033300002106,space,1.1540039000101388,,,,,,,,,,,,,,,,VAG,001,2023-05-06_17h55.55.754,Human_uncanny,2022.2.5,59.151507133208234,
Human,LSF,Stimuli For Psychopy/Human/matched-8-cpi-low-Rafd090_18_Caucasian_female_neutral_frontal.jpg,matched-8-cpi-low-Rafd090_18_Caucasian_female_neutral_frontal.jpg,0,0,0,3,,,,,1.479999627918005e-05,1.479999627918005e-05,28.92765430000145,28.92765430000145,1,[0.0009397999965585768],[0.9557601999840699],31.108979600016028,9.537037037037038,1.1802699999534525,1.290004001930356e-05,,,,,VAG,001,2023-05-06_17h55.55.754,Human_uncanny,2022.2.5,59.151507133208234,
Human,BSF,Stimuli For Psychopy/Human/matched-Rafd090_37_Caucasian_female_neutral_frontal.jpg,matched-Rafd090_37_Caucasian_female_neutral_frontal.jpg,0,1,1,44,,,,,,,33.19060259999242,33.19060259999242,1,[0.00042669998947530985],[0.9970696999807842],34.55898420000449,75.55555555555556,0.3492682999931276,1.3599987141788006e-05,34.19225650001317,34.19225650001317,,,VAG,001,2023-05-06_17h55.55.754,Human_uncanny,2022.2.5,59.151507133208234,
Human,HSF,Stimuli For Psychopy/Human/matched-32-cpi-low-Rafd090_16_Caucasian_female_neutral_frontal.jpg,matched-32-cpi-low-Rafd090_16_Caucasian_female_neutral_frontal.jpg,0,2,2,17,,,,,,,36.32568250002805,36.32568250002805,1,[0.0003772000200115144],[0.9968743000063114],38.27864530001534,47.03703703703704,0.9363142999936827,1.2999982573091984e-05,37.32599520002259,37.32599520002259,,,VAG,001,2023-05-06_17h55.55.754,Human_uncanny,2022.2.5,59.151507133208234,
Human,LSF,Stimuli For Psychopy/Human/matched-8-cpi-low-Rafd090_36_Caucasian_male_neutral_frontal.jpg,matched-8-cpi-low-Rafd090_36_Caucasian_male_neutral_frontal.jpg,0,3,3,13,,,,,,,40.123336800024845,40.123336800024845,1,[0.013399000046774745],[1.0116806000005454],41.89212530001532,56.574074074074076,0.7511053999769501,1.5900004655122757e-05,41.12349470000481,41.12349470000481,,,VAG,001,2023-05-06_17h55.55.754,Human_uncanny,2022.2.5,59.151507133208234,
Human,LSF,Stimuli For Psychopy/Human/matched-8-cpi-low-Rafd090_28_Caucasian_male_neutral_frontal.jpg,matched-8-cpi-low-Rafd090_28_Caucasian_male_neutral_frontal.jpg,0,4,4,8,,,,,,,43.659001199994236,43.659001199994236,1,[0.0003945000353269279],[0.9967636000365019],45.49509700003546,42.407407407407405,0.8190034999861382,1.2500036973506212e-05,44.65899770002579,44.65899770002579,,,VAG,001,2023-05-06_17h55.55.754,Human_uncanny,2022.2.5,59.151507133208234,
Human,LSF,Stimuli For Psychopy/Human/matched-8-cpi-low-Rafd090_26_Caucasian_female_neutral_frontal.jpg,matched-8-cpi-low-Rafd090_26_Caucasian_female_neutral_frontal.jpg,0,5,5,7,,,,,,,47.30882710003061,47.30882710003061,2,"[0.14994719997048378, 0.7970349999959581]","[0.249850099964533, 0.813401099992916]",48.775254300038796,55.37037037037037,0.4336188000161201,1.479999627918005e-05,,,,,VAG,001,2023-05-06_17h55.55.754,Human_uncanny,2022.2.5,59.151507133208234,
Human,BSF,Stimuli For Psychopy/Human/matched-Rafd090_36_Caucasian_male_neutral_frontal.jpg,matched-Rafd090_36_Caucasian_male_neutral_frontal.jpg,0,6,6,43,,,,,,,50.52534280001419,50.52534280001419,1,[0.000317899975925684],[0.9950331999571063],52.20860579999862,85.0,0.6500664000050165,1.260003773495555e-05,,,,,VAG,001,2023-05-06_17h55.55.754,Human_uncanny,2022.2.5,59.151507133208234,
Human,BSF,Stimuli For Psychopy/Human/matched-Rafd090_32_Caucasian_female_neutral_frontal.jpg,matched-Rafd090_32_Caucasian_female_neutral_frontal.jpg,0,7,7,41,,,,,,,54.30717670003651,54.30717670003651,1,[0.012615400017239153],[1.0126712000346743],55.85856750002131,95.27777777777777,0.532427900005132,1.1899974197149277e-05,55.3087521000416,55.3087521000416,,,VAG,001,2023-05-06_17h55.55.754,Human_uncanny,2022.2.5,59.151507133208234,
Human,LSF,Stimuli For Psychopy/Human/matched-8-cpi-low-Rafd090_32_Caucasian_female_neutral_frontal.jpg,matched-8-cpi-low-Rafd090_32_Caucasian_female_neutral_frontal.jpg,0,8,8,11,,,,,,,57.6251493000309,57.6251493000309,1,[0.011092300002928823],[1.0133902999805287],59.091717100003734,66.01851851851852,0.4491991000249982,1.6300007700920105e-05,58.625064000021666,58.625064000021666,,,VAG,001,2023-05-06_17h55.55.754,Human_uncanny,2022.2.5,59.151507133208234,
Human,HSF,Stimuli For Psychopy/Human/matched-32-cpi-low-Rafd090_28_Caucasian_male_neutral_frontal.jpg,matched-32-cpi-low-Rafd090_28_Caucasian_male_neutral_frontal.jpg,0,9,9,23,,,,,,,60.84169229998952,60.84169229998952,1,[0.00041859998600557446],[0.9963898999849334],62.27500950003741,68.5185185185185,0.41630619997158647,1.309998333454132e-05,61.8414938999922,61.8414938999922,,,VAG,001,2023-05-06_17h55.55.754,Human_uncanny,2022.2.5,59.151507133208234,
Human,HSF,Stimuli For Psychopy/Human/matched-32-cpi-low-Rafd090_33_Caucasian_male_neutral_frontal.jpg,matched-32-cpi-low-Rafd090_33_Caucasian_male_neutral_frontal.jpg,0,10,10,27,,,,,,,63.99161309999181,63.99161309999181,1,[0.00033920002169907093],[0.9963057999848388],65.50641169998562,87.03703703703704,0.49971199996070936,1.3299984857439995e-05,64.9916993000079,64.9916993000079,,,VAG,001,2023-05-06_17h55.55.754,Human_uncanny,2022.2.5,59.151507133208234,
Human,BSF,Stimuli For Psychopy/Human/matched-Rafd090_16_Caucasian_female_neutral_frontal.jpg,matched-Rafd090_16_Caucasian_female_neutral_frontal.jpg,0,11,11,32,,,,,,,67.25826910004253,67.25826910004253,1,[0.013933299982454628],[1.0134296999895014],68.82798070000717,77.03703703703704,0.5525768000516109,1.290004001930356e-05,68.25622260000091,68.25622260000091,,,VAG,001,2023-05-06_17h55.55.754,Human_uncanny,2022.2.5,59.151507133208234,
Human,HSF,Stimuli For Psychopy/Human/matched-32-cpi-low-Rafd090_31_Caucasian_female_neutral_frontal.jpg,matched-32-cpi-low-Rafd090_31_Caucasian_female_neutral_frontal.jpg,0,12,12,25,,,,,,,70.57488710002508,70.57488710002508,2,"[0.000380899989977479, 0.8297069999971427]","[0.7298555999877863, 0.9964942999649793]",72.37490059999982,90.46296296296296,0.7830302999936976,1.3000040780752897e-05,71.57489709998481,71.57489709998481,,,VAG,001,2023-05-06_17h55.55.754,Human_uncanny,2022.2.5,59.151507133208234,
Human,BSF,Stimuli For Psychopy/Human/matched-Rafd090_01_Caucasian_female_neutral_frontal.jpg,matched-Rafd090_01_Caucasian_female_neutral_frontal.jpg,0,13,13,30,,,,,,,74.12771279999288,74.12771279999288,1,[0.0009270000155083835],[1.0106670000241138],75.90588169998955,94.25925925925927,0.7493569999933243,1.2599979527294636e-05,75.13930390001042,75.13930390001042,,,VAG,001,2023-05-06_17h55.55.754,Human_uncanny,2022.2.5,59.151507133208234,
Human,BSF,Stimuli For Psychopy/Human/matched-Rafd090_26_Caucasian_female_neutral_frontal.jpg,matched-Rafd090_26_Caucasian_female_neutral_frontal.jpg,0,14,14,37,,,,,,,77.60799380001845,77.60799380001845,1,[0.00042130000656470656],[0.9965817999909632],79.70790400000988,85.74074074074073,1.0831369000370614,1.3000040780752897e-05,78.60817860002862,78.60817860002862,,,VAG,001,2023-05-06_17h55.55.754,Human_uncanny,2022.2.5,59.151507133208234,
Human,HSF,Stimuli For Psychopy/Human/matched-32-cpi-low-Rafd090_26_Caucasian_female_neutral_frontal.jpg,matched-32-cpi-low-Rafd090_26_Caucasian_female_neutral_frontal.jpg,0,15,15,22,,,,,,,81.42462130001513,81.42462130001513,2,"[0.013000599981751293, 0.9963197999750264]","[0.9631769999978133, 1.011184000002686]",82.8911972999922,89.53703703703704,0.43158149998635054,1.3499986380338669e-05,,,,,VAG,001,2023-05-06_17h55.55.754,Human_uncanny,2022.2.5,59.151507133208234,
Human,BSF,Stimuli For Psychopy/Human/matched-Rafd090_12_Caucasian_female_neutral_frontal.jpg,matched-Rafd090_12_Caucasian_female_neutral_frontal.jpg,0,16,16,31,,,,,,,84.60585799999535,84.60585799999535,1,[0.013211999961640686],[1.0133119999663904],86.07252730004257,91.85185185185185,0.44977629999630153,1.3199984095990658e-05,85.6078925000038,85.6078925000038,,,VAG,001,2023-05-06_17h55.55.754,Human_uncanny,2022.2.5,59.151507133208234,
Human,LSF,Stimuli For Psychopy/Human/matched-8-cpi-low-Rafd090_33_Caucasian_male_neutral_frontal.jpg,matched-8-cpi-low-Rafd090_33_Caucasian_male_neutral_frontal.jpg,0,17,17,12,,,,,,,87.79123000003165,87.79123000003165,1,[0.00037029996747151017],[0.9951350999763235],89.40775380004197,43.611111111111114,0.580973099975381,1.390004763379693e-05,,,,,VAG,001,2023-05-06_17h55.55.754,Human_uncanny,2022.2.5,59.151507133208234,
Human,LSF,Stimuli For Psychopy/Human/matched-8-cpi-low-Rafd090_01_Caucasian_female_neutral_frontal.jpg,matched-8-cpi-low-Rafd090_01_Caucasian_female_neutral_frontal.jpg,0,18,18,0,,,,,,,91.19100759999128,91.19100759999128,1,[0.0003806999884545803],[0.9972827999736182],93.06075190001866,92.5925925925926,0.8520865000318736,1.3699987903237343e-05,92.19102379999822,92.19102379999822,,,VAG,001,2023-05-06_17h55.55.754,Human_uncanny,2022.2.5,59.151507133208234,
Human,LSF,Stimuli For Psychopy/Human/matched-8-cpi-low-Rafd090_22_Caucasian_female_neutral_frontal.jpg,matched-8-cpi-low-Rafd090_22_Caucasian_female_neutral_frontal.jpg,0,19,19,5,,,,,,,94.80767680000281,94.80767680000281,1,[0.0005712999845854938],[0.9937391999992542],96.30755460000364,90.92592592592592,0.48269199999049306,1.3999990187585354e-05,95.80773140001111,95.80773140001111,,,VAG,001,2023-05-06_17h55.55.754,Human_uncanny,2022.2.5,59.151507133208234,
Human,LSF,Stimuli For Psychopy/Human/matched-8-cpi-low-Rafd090_19_Caucasian_female_neutral_frontal.jpg,matched-8-cpi-low-Rafd090_19_Caucasian_female_neutral_frontal.jpg,0,20,20,4,,,,,,,98.10758710000664,98.10758710000664,1,[0.01290920004248619],[1.012883800023701],100.40745300002163,72.77777777777777,1.2826258999994025,1.2499978765845299e-05,99.10743360000197,99.10743360000197,,,VAG,001,2023-05-06_17h55.55.754,Human_uncanny,2022.2.5,59.151507133208234,
Human,BSF,Stimuli For Psychopy/Human/matched-Rafd090_22_Caucasian_female_neutral_frontal.jpg,matched-Rafd090_22_Caucasian_female_neutral_frontal.jpg,0,21,21,35,,,,,,,102.19379230000777,102.19379230000777,1,[0.00035099999513477087],[1.0103547999751754],104.03871829999844,89.90740740740742,0.8163402000209317,1.360004534944892e-05,103.20742540003266,103.20742540003266,,,VAG,001,2023-05-06_17h55.55.754,Human_uncanny,2022.2.5,59.151507133208234,
Human,BSF,Stimuli For Psychopy/Human/matched-Rafd090_33_Caucasian_male_neutral_frontal.jpg,matched-Rafd090_33_Caucasian_male_neutral_frontal.jpg,0,22,22,42,,,,,,,105.82411530002719,105.82411530002719,1,[0.0005105999880470335],[0.9970699000405148],107.47708209999837,91.85185185185185,0.6360493000247516,1.3699987903237343e-05,106.82202080002753,106.82202080002753,,,VAG,001,2023-05-06_17h55.55.754,Human_uncanny,2022.2.5,59.151507133208234,
Human,LSF,Stimuli For Psychopy/Human/matched-8-cpi-low-Rafd090_12_Caucasian_female_neutral_frontal.jpg,matched-8-cpi-low-Rafd090_12_Caucasian_female_neutral_frontal.jpg,0,23,23,1,,,,,,,109.20729400002165,109.20729400002165,1,[0.013409600011073053],[1.0133911999873817],111.3740991000086,39.53703703703704,2.7326415999559686,1.2399978004395962e-05,110.20736410003155,110.20736410003155,,,VAG,001,2023-05-06_17h55.55.754,Human_uncanny,2022.2.5,59.151507133208234,
Human,HSF,Stimuli For Psychopy/Human/matched-32-cpi-low-Rafd090_36_Caucasian_male_neutral_frontal.jpg,matched-32-cpi-low-Rafd090_36_Caucasian_male_neutral_frontal.jpg,0,24,24,28,,,,,,,114.71087860001717,114.71087860001717,2,"[0.00047480000648647547, 0.6934814999694936]","[0.6433174000121653, 1.010204899997916]",116.27184510004008,74.44444444444444,0.5326170000480488,1.3399985618889332e-05,115.72152469999855,115.72152469999855,,,VAG,001,2023-05-06_17h55.55.754,Human_uncanny,2022.2.5,59.151507133208234,
Human,HSF,Stimuli For Psychopy/Human/matched-32-cpi-low-Rafd090_19_Caucasian_female_neutral_frontal.jpg,matched-32-cpi-low-Rafd090_19_Caucasian_female_neutral_frontal.jpg,0,25,25,19,,,,,,,118.0071049000253,118.0071049000253,1,[0.010471699992194772],[1.010195399983786],120.06002870004158,42.5,1.0356427999795415,1.3199984095990658e-05,119.00689810002223,119.00689810002223,,,VAG,001,2023-05-06_17h55.55.754,Human_uncanny,2022.2.5,59.151507133208234,
Human,HSF,Stimuli For Psychopy/Human/matched-32-cpi-low-Rafd090_32_Caucasian_female_neutral_frontal.jpg,matched-32-cpi-low-Rafd090_32_Caucasian_female_neutral_frontal.jpg,0,26,26,26,,,,,,,121.94031740003265,121.94031740003265,1,[0.013307399989571422],[1.0131008999887854],123.5736060999916,92.5,0.6139703000080772,1.479999627918005e-05,122.94017539999913,122.94017539999913,,,VAG,001,2023-05-06_17h55.55.754,Human_uncanny,2022.2.5,59.151507133208234,
Human,LSF,Stimuli For Psychopy/Human/matched-8-cpi-low-Rafd090_30_Caucasian_male_neutral_frontal.jpg,matched-8-cpi-low-Rafd090_30_Caucasian_male_neutral_frontal.jpg,0,27,27,9,,,,,,,125.59024260001024,125.59024260001024,1,[0.0003674000035971403],[0.9968110999907367],127.2049740999937,69.9074074074074,0.5995685000088997,1.3199984095990658e-05,126.58815140003571,126.58815140003571,,,VAG,001,2023-05-06_17h55.55.754,Human_uncanny,2022.2.5,59.151507133208234,
Human,HSF,Stimuli For Psychopy/Human/matched-32-cpi-low-Rafd090_30_Caucasian_male_neutral_frontal.jpg,matched-32-cpi-low-Rafd090_30_Caucasian_male_neutral_frontal.jpg,0,28,28,24,,,,,,,128.89011750003556,128.89011750003556,1,[0.00042349996510893106],[0.9962913999916054],130.52645410003606,81.0185185185185,0.6193356000003405,1.3399985618889332e-05,129.89008129999274,129.89008129999274,,,VAG,001,2023-05-06_17h55.55.754,Human_uncanny,2022.2.5,59.151507133208234,
Human,BSF,Stimuli For Psychopy/Human/matched-Rafd090_30_Caucasian_male_neutral_frontal.jpg,matched-Rafd090_30_Caucasian_male_neutral_frontal.jpg,0,29,29,39,,,,,,,132.2400612999918,132.2400612999918,1,[0.0004146000137552619],[0.9971116000087932],133.62639650003985,98.24074074074073,0.3686018999433145,1.4099990949034691e-05,133.24010130000534,133.24010130000534,,,VAG,001,2023-05-06_17h55.55.754,Human_uncanny,2022.2.5,59.151507133208234,
Human,HSF,Stimuli For Psychopy/Human/matched-32-cpi-low-Rafd090_22_Caucasian_female_neutral_frontal.jpg,matched-32-cpi-low-Rafd090_22_Caucasian_female_neutral_frontal.jpg,0,30,30,20,,,,,,,135.70968379999977,135.70968379999977,1,[0.00033680000342428684],[1.011034799972549],137.13996000000043,86.85185185185185,0.39882120001129806,1.2599979527294636e-05,136.72135130001698,136.72135130001698,,,VAG,001,2023-05-06_17h55.55.754,Human_uncanny,2022.2.5,59.151507133208234,
Human,BSF,Stimuli For Psychopy/Human/matched-Rafd090_18_Caucasian_female_neutral_frontal.jpg,matched-Rafd090_18_Caucasian_female_neutral_frontal.jpg,0,31,31,33,,,,,,,138.85455170000205,138.85455170000205,1,[0.013324400002602488],[1.0109894000343047],140.52314970002044,93.5185185185185,0.6511925999657251,1.2700038496404886e-05,139.856528000033,139.856528000033,,,VAG,001,2023-05-06_17h55.55.754,Human_uncanny,2022.2.5,59.151507133208234,
Human,HSF,Stimuli For Psychopy/Human/matched-32-cpi-low-Rafd090_24_Caucasian_male_neutral_frontal.jpg,matched-32-cpi-low-Rafd090_24_Caucasian_male_neutral_frontal.jpg,0,32,32,21,,,,,,,142.2730968000251,142.2730968000251,1,[0.013129900034982711],[1.0134166000061668],144.00650740001583,79.62962962962963,0.7156703000073321,1.2699980288743973e-05,143.27303740003845,143.27303740003845,,,VAG,001,2023-05-06_17h55.55.754,Human_uncanny,2022.2.5,59.151507133208234,
Human,HSF,Stimuli For Psychopy/Human/matched-32-cpi-low-Rafd090_18_Caucasian_female_neutral_frontal.jpg,matched-32-cpi-low-Rafd090_18_Caucasian_female_neutral_frontal.jpg,0,33,33,18,,,,,,,145.90947409998626,145.90947409998626,1,[0.0004920000210404396],[1.010160400008317],147.90448359999573,37.31481481481481,0.9664881000062451,1.2899981811642647e-05,146.92287820001366,146.92287820001366,,,VAG,001,2023-05-06_17h55.55.754,Human_uncanny,2022.2.5,59.151507133208234,
Human,BSF,Stimuli For Psychopy/Human/matched-Rafd090_31_Caucasian_female_neutral_frontal.jpg,matched-Rafd090_31_Caucasian_female_neutral_frontal.jpg,0,34,34,40,,,,,,,149.73962880001636,149.73962880001636,1,[0.00038460001815110445],[0.9949647000175901],151.17601860000286,91.2037037037037,0.40370020002592355,1.2999982573091984e-05,,,,,VAG,001,2023-05-06_17h55.55.754,Human_uncanny,2022.2.5,59.151507133208234,
Human,HSF,Stimuli For Psychopy/Human/matched-32-cpi-low-Rafd090_01_Caucasian_female_neutral_frontal.jpg,matched-32-cpi-low-Rafd090_01_Caucasian_female_neutral_frontal.jpg,0,35,35,15,,,,,,,153.22586260002572,153.22586260002572,1,[0.00040980003541335464],[1.0102239000261761],155.30618080002023,94.25925925925927,1.0490432999795303,1.3699987903237343e-05,154.23961620003683,154.23961620003683,,,VAG,001,2023-05-06_17h55.55.754,Human_uncanny,2022.2.5,59.151507133208234,
Human,LSF,Stimuli For Psychopy/Human/matched-8-cpi-low-Rafd090_24_Caucasian_male_neutral_frontal.jpg,matched-8-cpi-low-Rafd090_24_Caucasian_male_neutral_frontal.jpg,0,36,36,6,,,,,,,157.15623339999001,157.15623339999001,1,[0.0003369000041857362],[0.9970622999826446],159.05913780000992,69.07407407407408,0.8855502000078559,1.5199999324977398e-05,158.15390040003695,158.15390040003695,,,VAG,001,2023-05-06_17h55.55.754,Human_uncanny,2022.2.5,59.151507133208234,
Human,BSF,Stimuli For Psychopy/Human/matched-Rafd090_19_Caucasian_female_neutral_frontal.jpg,matched-Rafd090_19_Caucasian_female_neutral_frontal.jpg,0,37,37,34,,,,,,,160.80606880004052,160.80606880004052,1,[0.00033220002660527825],[0.9971713999984786],162.3726091000135,39.44444444444444,0.5491855000145733,1.6899954061955214e-05,161.8038415000192,161.8038415000192,,,VAG,001,2023-05-06_17h55.55.754,Human_uncanny,2022.2.5,59.151507133208234,
Human,HSF,Stimuli For Psychopy/Human/matched-32-cpi-low-Rafd090_37_Caucasian_female_neutral_frontal.jpg,matched-32-cpi-low-Rafd090_37_Caucasian_female_neutral_frontal.jpg,0,38,38,29,,,,,,,164.53931930003455,164.53931930003455,3,"[0.00045219995081424713, 0.29577649995917454, 0.6953614999656565]","[0.22873119998257607, 0.6287077999440953, 0.9954415999818593]",166.0256483000121,89.72222222222221,0.4694514999864623,1.3700046110898256e-05,165.53947920002975,165.53947920002975,,,VAG,001,2023-05-06_17h55.55.754,Human_uncanny,2022.2.5,59.151507133208234,
Human,LSF,Stimuli For Psychopy/Human/matched-8-cpi-low-Rafd090_31_Caucasian_female_neutral_frontal.jpg,matched-8-cpi-low-Rafd090_31_Caucasian_female_neutral_frontal.jpg,0,39,39,10,,,,,,,167.7560392000014,167.7560392000014,1,[0.00047610001638531685],[0.9969191999989562],169.14216480002506,72.59259259259258,0.3690929000149481,1.4899997040629387e-05,168.75390890002018,168.75390890002018,,,VAG,001,2023-05-06_17h55.55.754,Human_uncanny,2022.2.5,59.151507133208234,
Human,HSF,Stimuli For Psychopy/Human/matched-32-cpi-low-Rafd090_12_Caucasian_female_neutral_frontal.jpg,matched-32-cpi-low-Rafd090_12_Caucasian_female_neutral_frontal.jpg,0,40,40,16,,,,,,,170.85581540002022,170.85581540002022,1,[0.00036419997923076153],[0.9954466000199318],172.97253989998717,92.22222222222223,1.0836078000138514,1.3199984095990658e-05,,,,,VAG,001,2023-05-06_17h55.55.754,Human_uncanny,2022.2.5,59.151507133208234,
Human,BSF,Stimuli For Psychopy/Human/matched-Rafd090_24_Caucasian_male_neutral_frontal.jpg,matched-Rafd090_24_Caucasian_male_neutral_frontal.jpg,0,41,41,36,,,,,,,174.75881279999157,174.75881279999157,1,[0.00037379999412223697],[0.994053200003691],176.23899859999074,87.31481481481482,0.4497368999873288,1.2299977242946625e-05,,,,,VAG,001,2023-05-06_17h55.55.754,Human_uncanny,2022.2.5,59.151507133208234,
Human,LSF,Stimuli For Psychopy/Human/matched-8-cpi-low-Rafd090_37_Caucasian_female_neutral_frontal.jpg,matched-8-cpi-low-Rafd090_37_Caucasian_female_neutral_frontal.jpg,0,42,42,14,,,,,,,177.98898200003896,177.98898200003896,1,[0.0004412000416778028],[0.9962948000174947],179.5889522000216,44.25925925925926,0.5828997000353411,1.2999982573091984e-05,178.98896650003735,178.98896650003735,,,VAG,001,2023-05-06_17h55.55.754,Human_uncanny,2022.2.5,59.151507133208234,
Human,BSF,Stimuli For Psychopy/Human/matched-Rafd090_28_Caucasian_male_neutral_frontal.jpg,matched-Rafd090_28_Caucasian_male_neutral_frontal.jpg,0,43,43,38,,,,,,,181.38704410003265,181.38704410003265,1,[0.01336119999177754],[1.0133582999696955],182.85866279999027,63.24074074074074,0.45262100000400096,2.1599989850074053e-05,182.38710250001168,182.38710250001168,,,VAG,001,2023-05-06_17h55.55.754,Human_uncanny,2022.2.5,59.151507133208234,
Human,LSF,Stimuli For Psychopy/Human/matched-8-cpi-low-Rafd090_16_Caucasian_female_neutral_frontal.jpg,matched-8-cpi-low-Rafd090_16_Caucasian_female_neutral_frontal.jpg,0,44,44,2,,,,,,,184.57218990003457,184.57218990003457,1,[0.0003990999539382756],[0.9967293999507092],186.12517080002,80.74074074074073,0.535656200023368,1.360004534944892e-05,185.5702137000044,185.5702137000044,,,VAG,001,2023-05-06_17h55.55.754,Human_uncanny,2022.2.5,59.151507133208234,
,,,,,,,,,,,,,,,,,,,,,,,,,0.014958200044929981,1.018026900012046,,,,,,,
