Type,Spatial_Frequency,filepath,file_name,robotic_trials.thisRepN,robotic_trials.thisTrialN,robotic_trials.thisN,robotic_trials.thisIndex,instruction.started,key_resp.started,key_resp.keys,key_resp.rt,etRecord.started,etRecord.stopped,Robotic__Stimuli.started,roi.started,roi.numLooks,roi.timesOn,roi.timesOff,Likebility_slider_3.response,Likebility_slider_3.rt,ISI_2.started,Robotic__Stimuli.stopped,roi.stopped,etRecord_2.started,etRecord_2.stopped,participant,session,date,expName,psychopyVersion,frameRate,
,,,,,,,,85.3662045999954,85.3662045999954,space,1.8499862000026042,,,,,,,,,,,,,,,VYV,001,2023-04-16_21h50.01.102,trial uncanny,2022.2.5,59.10644065100967,
Humanoid,HSF,Stimuli For Psychopy\Robotic\matched-32-cpi-low-c71.jpeg,matched-32-cpi-low-c71.jpeg,0,0,0,39,,,,,1.2900010915473104e-05,1.2900010915473104e-05,88.25458490000165,88.25458490000165,1,[0.0005734000005759299],[0.9840160000021569],12.222222222222229,0.8338656999985687,1.4399993233382702e-05,,,,,VYV,001,2023-04-16_21h50.01.102,trial uncanny,2022.2.5,59.10644065100967,
Humanoid,HSF,Stimuli For Psychopy\Robotic\matched-32-cpi-low-c63.jpeg,matched-32-cpi-low-c63.jpeg,0,1,1,33,,,,,,,92.56304409999575,92.56304409999575,3,"[0.00896140000259038, 0.7094185000023572, 0.8759564999927534]","[0.6613272999966284, 0.7775580000015907, 0.9945512999984203]",-56.111111111111114,0.5329997000080766,1.2299991794861853e-05,,,,,VYV,001,2023-04-16_21h50.01.102,trial uncanny,2022.2.5,59.10644065100967,
Mechanical,HSF,Stimuli For Psychopy\Robotic\matched-32-cpi-low-c38.jpeg,matched-32-cpi-low-c38.jpeg,0,2,2,87,,,,,,,96.29803299999912,96.29803299999912,2,"[0.0005426999996416271, 0.7747779000055743]","[0.5919604000082472, 0.9917622000066331]",-85.37037037037038,0.649768999996013,1.5999990864656866e-05,97.29813159999321,97.29813159999321,,,VYV,001,2023-04-16_21h50.01.102,trial uncanny,2022.2.5,59.10644065100967,
Mechanical,LSF,Stimuli For Psychopy\Robotic\matched-8-cpi-low-c14.jpeg,matched-8-cpi-low-c14.jpeg,0,3,3,63,,,,,,,99.98172879999038,99.98172879999038,1,[0.8255362999916542],[0.9777676999947289],-100,0.8983599000057438,1.990000600926578e-05,,,,,VYV,001,2023-04-16_21h50.01.102,trial uncanny,2022.2.5,59.10644065100967,
Humanoid,HSF,Stimuli For Psychopy\Robotic\matched-32-cpi-low-c67.jpeg,matched-32-cpi-low-c67.jpeg,0,4,4,37,,,,,,,104.1671512999892,104.1671512999892,2,"[0.158130900003016, 0.32320569999865256]","[0.1711790999979712, 1.0216308000090066]",-19.629629629629633,0.8507723999937298,1.3299999409355223e-05,105.17958640000143,105.17958640000143,,,VYV,001,2023-04-16_21h50.01.102,trial uncanny,2022.2.5,59.10644065100967,
Humanoid,BSF,Stimuli For Psychopy\Robotic\matched-c63.jpeg,matched-c63.jpeg,0,5,5,3,,,,,,,108.01463939998939,108.01463939998939,1,[0.007942399999592453],[1.0091090999922017],-21.66666666666667,0.7663883000059286,1.3900003978051245e-05,109.01292769999418,109.01292769999418,,,VYV,001,2023-04-16_21h50.01.102,trial uncanny,2022.2.5,59.10644065100967,
Mechanical,HSF,Stimuli For Psychopy\Robotic\matched-32-cpi-low-c42.jpeg,matched-32-cpi-low-c42.jpeg,0,6,6,89,,,,,,,111.74603989999741,111.74603989999741,1,[0.0009929000079864636],[0.9919400000071619],1.1111111111111143,1.8980965999944601,1.5099998563528061e-05,112.74604810000164,112.74604810000164,,,VYV,001,2023-04-16_21h50.01.102,trial uncanny,2022.2.5,59.10644065100967,
Mechanical,LSF,Stimuli For Psychopy\Robotic\matched-8-cpi-low-c38.jpeg,matched-8-cpi-low-c38.jpeg,0,7,7,72,,,,,,,116.86457839999639,116.86457839999639,2,"[0.008077699996647425, 0.4264538999996148]","[0.40944849999505095, 1.0098581999918679]",6.481481481481495,1.0499285999976564,1.3500000932253897e-05,117.86423219999415,117.86423219999415,,,VYV,001,2023-04-16_21h50.01.102,trial uncanny,2022.2.5,59.10644065100967,
Humanoid,HSF,Stimuli For Psychopy\Robotic\matched-32-cpi-low-c74.jpeg,matched-32-cpi-low-c74.jpeg,0,8,8,41,,,,,,,120.89584679999098,120.89584679999098,1,[0.0005041999975219369],[0.9919737000018358],-12.592592592592595,0.5983172999985982,1.3600001693703234e-05,121.89595869999903,121.89595869999903,,,VYV,001,2023-04-16_21h50.01.102,trial uncanny,2022.2.5,59.10644065100967,
Mechanical,LSF,Stimuli For Psychopy\Robotic\matched-8-cpi-low-c16.jpeg,matched-8-cpi-low-c16.jpeg,0,9,9,64,,,,,,,124.49589949999063,124.49589949999063,2,"[0.0007643999997526407, 0.4262773000082234]","[0.07608480000635609, 0.9927784000028623]",-22.77777777777777,0.7642079999932321,1.3800003216601908e-05,125.4976891999977,125.4976891999977,,,VYV,001,2023-04-16_21h50.01.102,trial uncanny,2022.2.5,59.10644065100967,
Humanoid,BSF,Stimuli For Psychopy\Robotic\matched-c66.jpeg,matched-c66.jpeg,0,10,10,6,,,,,,,128.16410319998977,128.16410319998977,1,[0.0005522999999811873],[1.0072893000033218],-36.48148148148148,0.8655838999984553,1.340000017080456e-05,129.179195299992,129.179195299992,,,VYV,001,2023-04-16_21h50.01.102,trial uncanny,2022.2.5,59.10644065100967,
Mechanical,BSF,Stimuli For Psychopy\Robotic\matched-c12.jpeg,matched-c12.jpeg,0,11,11,47,,,,,,,131.99530719999166,131.99530719999166,2,"[0.0005382999952416867, 0.7567295000044396]","[0.6721956999972463, 0.8403825999994297]",25.555555555555557,0.8017734000022756,1.340000017080456e-05,132.99774679999973,132.99774679999973,,,VYV,001,2023-04-16_21h50.01.102,trial uncanny,2022.2.5,59.10644065100967,
Mechanical,BSF,Stimuli For Psychopy\Robotic\matched-c36.jpeg,matched-c36.jpeg,0,12,12,55,,,,,,,135.81471639999654,135.81471639999654,1,[0.0003659999929368496],[0.9898753000015859],13.888888888888886,1.7144953999959398,1.5099998563528061e-05,136.8123227999895,136.8123227999895,,,VYV,001,2023-04-16_21h50.01.102,trial uncanny,2022.2.5,59.10644065100967,
Humanoid,LSF,Stimuli For Psychopy\Robotic\matched-8-cpi-low-c65.jpeg,matched-8-cpi-low-c65.jpeg,0,13,13,20,,,,,,,140.52870519999124,140.52870519999124,1,[0.0006189999985508621],[0.9927371999947354],-17.592592592592595,0.682601300009992,1.2599994079209864e-05,141.52892849998898,141.52892849998898,,,VYV,001,2023-04-16_21h50.01.102,trial uncanny,2022.2.5,59.10644065100967,
Mechanical,BSF,Stimuli For Psychopy\Robotic\matched-c37.jpeg,matched-c37.jpeg,0,14,14,56,,,,,,,144.1953167999891,144.1953167999891,2,"[0.00041280000004917383, 0.9588325999939116]","[0.9085085999977309, 0.9904740999918431]",35.925925925925924,0.6177588999998989,1.3700002455152571e-05,145.19719110000005,145.19719110000005,,,VYV,001,2023-04-16_21h50.01.102,trial uncanny,2022.2.5,59.10644065100967,
Mechanical,HSF,Stimuli For Psychopy\Robotic\matched-32-cpi-low-c10.jpeg,matched-32-cpi-low-c10.jpeg,0,15,15,75,,,,,,,147.7469623999932,147.7469623999932,3,"[0.0005514000076800585, 0.07558430000790395, 0.8420598000084283]","[0.025395000004209578, 0.6921741000114707, 0.977862500003539]",-47.59259259259259,0.9814052000001539,1.2500007869675756e-05,,,,,VYV,001,2023-04-16_21h50.01.102,trial uncanny,2022.2.5,59.10644065100967,
Mechanical,HSF,Stimuli For Psychopy\Robotic\matched-32-cpi-low-c14.jpeg,matched-32-cpi-low-c14.jpeg,0,16,16,78,,,,,,,151.8156076999876,151.8156076999876,3,"[0.0012322999973548576, 0.9047818999970332, 1.0063970999908634]","[0.8883741999889025, 0.9729528000025311, 1.0063997999968706]",-90.0,0.499569599996903,1.2999997125007212e-05,152.8285870999971,152.8285870999971,,,VYV,001,2023-04-16_21h50.01.102,trial uncanny,2022.2.5,59.10644065100967,
Humanoid,LSF,Stimuli For Psychopy\Robotic\matched-8-cpi-low-c61.jpeg,matched-8-cpi-low-c61.jpeg,0,17,17,17,,,,,,,155.33014900000126,155.33014900000126,2,"[0.0070173999993130565, 0.04207470000255853]","[0.025391999995918013, 1.0069912000035401]",-89.81481481481481,1.0667327999981353,1.5399986295960844e-05,,,,,VYV,001,2023-04-16_21h50.01.102,trial uncanny,2022.2.5,59.10644065100967,
Humanoid,HSF,Stimuli For Psychopy\Robotic\matched-32-cpi-low-c58.jpeg,matched-32-cpi-low-c58.jpeg,0,18,18,31,,,,,,,159.34515429999738,159.34515429999738,5,"[0.00661240000044927, 0.3580114000069443, 0.558579100004863, 0.6082585000112886, 0.6752681000070879]","[0.34149839999736287, 0.4579227000067476, 0.5915995000104886, 0.6246362000092631, 1.0065586999990046]",-55.74074074074075,0.617761800007429,1.2400007108226418e-05,160.34502219999558,160.34502219999558,,,VYV,001,2023-04-16_21h50.01.102,trial uncanny,2022.2.5,59.10644065100967,
Mechanical,BSF,Stimuli For Psychopy\Robotic\matched-c43.jpeg,Matched-c43.jpeg,0,19,19,51,,,,,,,163.01176979999582,163.01176979999582,1,[0.0003870000073220581],[0.9923447000037413],50.925925925925924,0.7998341000056826,1.4299992471933365e-05,164.01147969999874,164.01147969999874,,,VYV,001,2023-04-16_21h50.01.102,trial uncanny,2022.2.5,59.10644065100967,
Humanoid,HSF,Stimuli For Psychopy\Robotic\matched-32-cpi-low-c77.jpeg,matched-32-cpi-low-c77.jpeg,0,20,20,43,,,,,,,166.92985639999097,166.92985639999097,3,"[0.0003932000108761713, 0.04231080001045484, 0.3939857000077609]","[0.010668200004147366, 0.17746220000844914, 0.9795409000071231]",17.777777777777786,0.8962934000010137,1.580000389367342e-05,,,,,VYV,001,2023-04-16_21h50.01.102,trial uncanny,2022.2.5,59.10644065100967,
Mechanical,HSF,Stimuli For Psychopy\Robotic\matched-32-cpi-low-c17.jpeg,matched-32-cpi-low-c17.jpeg,0,21,21,80,,,,,,,170.79762059998757,170.79762059998757,1,[0.0007273999945027754],[1.0053518999920925],4.8148148148148096,1.1477054999995744,1.3999990187585354e-05,171.8132246999885,171.8132246999885,,,VYV,001,2023-04-16_21h50.01.102,trial uncanny,2022.2.5,59.10644065100967,
Humanoid,HSF,Stimuli For Psychopy\Robotic\matched-32-cpi-low-c69.jpeg,matched-32-cpi-low-c69.jpeg,0,22,22,38,,,,,,,175.0945878999919,175.0945878999919,1,[0.0008870000019669533],[0.9920616000017617],13.148148148148152,1.1001798000070266,1.3199998647905886e-05,176.09634319999896,176.09634319999896,,,VYV,001,2023-04-16_21h50.01.102,trial uncanny,2022.2.5,59.10644065100967,
Humanoid,BSF,Stimuli For Psychopy\Robotic\matched-c64.jpeg,matched-c64.jpeg,0,23,23,4,,,,,,,179.17964019998908,179.17964019998908,1,[0.0004219000111334026],[0.992186400006176],-19.074074074074076,0.4334734000003664,1.410000550094992e-05,,,,,VYV,001,2023-04-16_21h50.01.102,trial uncanny,2022.2.5,59.10644065100967,
Mechanical,HSF,Stimuli For Psychopy\Robotic\matched-32-cpi-low-c27.jpeg,matched-32-cpi-low-c27.jpeg,0,24,24,82,,,,,,,182.52978079998866,182.52978079998866,1,[0.0006715000054100528],[0.992530200004694],-47.22222222222222,1.1643408999952953,1.410000550094992e-05,183.5296287999954,183.5296287999954,,,VYV,001,2023-04-16_21h50.01.102,trial uncanny,2022.2.5,59.10644065100967,
Mechanical,HSF,Stimuli For Psychopy\Robotic\matched-32-cpi-low-c35.jpeg,matched-32-cpi-low-c35.jpeg,0,25,25,84,,,,,,,186.61291659998824,186.61291659998824,1,[0.0006173000001581386],[0.9926506000047084],22.962962962962962,0.8662115000042832,1.4099990949034691e-05,187.61279749999812,187.61279749999812,,,VYV,001,2023-04-16_21h50.01.102,trial uncanny,2022.2.5,59.10644065100967,
Mechanical,LSF,Stimuli For Psychopy\Robotic\matched-8-cpi-low-c33.jpeg,matched-8-cpi-low-c33.jpeg,0,26,26,68,,,,,,,190.66130539998994,190.66130539998994,2,"[0.010730000009061769, 0.09221509999770205]","[0.07747610000660643, 0.7775024000002304]",11.666666666666671,0.7500326000008499,1.2699994840659201e-05,,,,,VYV,001,2023-04-16_21h50.01.102,trial uncanny,2022.2.5,59.10644065100967,
Mechanical,LSF,Stimuli For Psychopy\Robotic\matched-8-cpi-low-c42.jpeg,matched-8-cpi-low-c42.jpeg,0,27,27,74,,,,,,,194.5460119999916,194.5460119999916,1,[0.008088599992333911],[0.8581414999935078],20.925925925925924,0.714658299999428,1.4000004739500582e-05,195.54432429998997,195.54432429998997,,,VYV,001,2023-04-16_21h50.01.102,trial uncanny,2022.2.5,59.10644065100967,
Mechanical,LSF,Stimuli For Psychopy\Robotic\matched-8-cpi-low-c37.jpeg,matched-8-cpi-low-c37.jpeg,0,28,28,71,,,,,,,198.1624972999998,198.1624972999998,1,[0.0004997000069124624],[0.9930486999946879],7.962962962962976,0.7643167999922298,1.4199991710484028e-05,199.16084689999116,199.16084689999116,,,VYV,001,2023-04-16_21h50.01.102,trial uncanny,2022.2.5,59.10644065100967,
Mechanical,LSF,Stimuli For Psychopy\Robotic\matched-8-cpi-low-c10.jpeg,matched-8-cpi-low-c10.jpeg,0,29,29,60,,,,,,,202.27741969999624,202.27741969999624,1,[0.0003704999980982393],[0.7421612000034656],-87.77777777777777,0.46844029999920167,1.2799995602108538e-05,203.27924429999257,203.27924429999257,,,VYV,001,2023-04-16_21h50.01.102,trial uncanny,2022.2.5,59.10644065100967,
Humanoid,BSF,Stimuli For Psychopy\Robotic\matched-c76.jpeg,matched-c76.jpeg,0,30,30,12,,,,,,,205.8606155999878,205.8606155999878,2,"[0.00036949999048374593, 0.9085089000000153]","[0.7083137000008719, 0.9915597999934107]",1.1111111111111143,1.482930199999828,1.5900004655122757e-05,206.86060739999812,206.86060739999812,,,VYV,001,2023-04-16_21h50.01.102,trial uncanny,2022.2.5,59.10644065100967,
Mechanical,BSF,Stimuli For Psychopy\Robotic\matched-c14.jpeg,matched-c14.jpeg,0,31,31,48,,,,,,,210.54382839999744,210.54382839999744,2,"[0.0013628000015160069, 0.9253721999994013]","[0.7421178000076907, 0.9923784999991767]",-29.444444444444457,0.7140777000022354,1.5900004655122757e-05,211.54403219999222,211.54403219999222,,,VYV,001,2023-04-16_21h50.01.102,trial uncanny,2022.2.5,59.10644065100967,
Humanoid,LSF,Stimuli For Psychopy\Robotic\matched-8-cpi-low-c77.jpeg,matched-8-cpi-low-c77.jpeg,0,32,32,28,,,,,,,214.17713959999674,214.17713959999674,1,[0.000487900004372932],[0.9920191999990493],14.999999999999986,0.6494669999956386,1.5700003132224083e-05,215.17741459999525,215.17741459999525,,,VYV,001,2023-04-16_21h50.01.102,trial uncanny,2022.2.5,59.10644065100967,
Mechanical,HSF,Stimuli For Psychopy\Robotic\matched-32-cpi-low-c33.jpeg,matched-32-cpi-low-c33.jpeg,0,33,33,83,,,,,,,217.7288824999996,217.7288824999996,1,[0.000384599989047274],[0.9773580999899423],10.555555555555557,1.0649250999995274,2.3100001271814108e-05,,,,,VYV,001,2023-04-16_21h50.01.102,trial uncanny,2022.2.5,59.10644065100967,
Humanoid,LSF,Stimuli For Psychopy\Robotic\matched-8-cpi-low-c79.jpeg,matched-8-cpi-low-c79.jpeg,0,34,34,29,,,,,,,221.66209589999926,221.66209589999926,1,[0.0010529999999562278],[0.9904609999939566],3.333333333333343,0.9320549000112806,1.4200006262399256e-05,222.66200719999324,222.66200719999324,,,VYV,001,2023-04-16_21h50.01.102,trial uncanny,2022.2.5,59.10644065100967,
Humanoid,LSF,Stimuli For Psychopy\Robotic\matched-8-cpi-low-c58.jpeg,matched-8-cpi-low-c58.jpeg,0,35,35,16,,,,,,,225.74352269999508,225.74352269999508,3,"[0.0004563999973470345, 0.4735161999997217, 0.9924426000070525]","[0.45871740000438876, 0.9588630000071134, 0.9924450999969849]",-27.037037037037038,0.6973625999962678,1.3500000932253897e-05,226.74358119998942,226.74358119998942,,,VYV,001,2023-04-16_21h50.01.102,trial uncanny,2022.2.5,59.10644065100967,
Mechanical,BSF,Stimuli For Psychopy\Robotic\matched-c10.jpeg,matched-c10.jpeg,0,36,36,45,,,,,,,229.41216959999292,229.41216959999292,1,[0.0004275999963283539],[0.9435723000060534],-64.25925925925927,0.7142862000036985,1.3299999409355223e-05,230.41365689999657,230.41365689999657,,,VYV,001,2023-04-16_21h50.01.102,trial uncanny,2022.2.5,59.10644065100967,
Mechanical,BSF,Stimuli For Psychopy\Robotic\matched-c27.jpeg,matched-c27.jpeg,0,37,37,52,,,,,,,233.093338199993,233.093338199993,1,[0.008194099995307624],[1.0061889000062365],-39.444444444444436,0.4022063000011258,1.309999788645655e-05,234.09316379998927,234.09316379998927,,,VYV,001,2023-04-16_21h50.01.102,trial uncanny,2022.2.5,59.10644065100967,
Mechanical,LSF,Stimuli For Psychopy\Robotic\matched-8-cpi-low-c36.jpeg,matched-8-cpi-low-c36.jpeg,0,38,38,70,,,,,,,236.3931375999964,236.3931375999964,1,[0.0004248000041116029],[0.9947071999922628],1.6666666666666572,1.5142171000043163,1.2799995602108538e-05,237.39333729998907,237.39333729998907,,,VYV,001,2023-04-16_21h50.01.102,trial uncanny,2022.2.5,59.10644065100967,
Humanoid,HSF,Stimuli For Psychopy\Robotic\matched-32-cpi-low-c79.jpeg,matched-32-cpi-low-c79.jpeg,0,39,39,44,,,,,,,240.795040099998,240.795040099998,1,[0.008438300006673671],[1.0067259000061313],3.7037037037036953,1.0167742000048747,1.3600001693703234e-05,,,,,VYV,001,2023-04-16_21h50.01.102,trial uncanny,2022.2.5,59.10644065100967,
Humanoid,HSF,Stimuli For Psychopy\Robotic\matched-32-cpi-low-c66.jpeg,matched-32-cpi-low-c66.jpeg,0,40,40,36,,,,,,,244.73065759999736,244.73065759999736,1,[0.009210399992298335],[1.0054832000023453],12.407407407407405,1.0001899000053527,1.379998866468668e-05,,,,,VYV,001,2023-04-16_21h50.01.102,trial uncanny,2022.2.5,59.10644065100967,
Humanoid,LSF,Stimuli For Psychopy\Robotic\matched-8-cpi-low-c63.jpeg,matched-8-cpi-low-c63.jpeg,0,41,41,18,,,,,,,248.8617865999986,248.8617865999986,1,[0.009677099995315075],[1.00966630000039],-36.48148148148148,0.4169755999901099,1.4599994756281376e-05,249.86158989999967,249.86158989999967,,,VYV,001,2023-04-16_21h50.01.102,trial uncanny,2022.2.5,59.10644065100967,
Humanoid,BSF,Stimuli For Psychopy\Robotic\matched-c71.jpeg,matched-c71.jpeg,0,42,42,9,,,,,,,252.25979820000066,252.25979820000066,3,"[0.00941870000679046, 0.7592007000057492, 0.9759062000084668]","[0.6910424000088824, 0.9589234000013676, 1.0090735999983735]",35.55555555555557,0.8332129000045825,1.4599994756281376e-05,253.25968569998804,253.25968569998804,,,VYV,001,2023-04-16_21h50.01.102,trial uncanny,2022.2.5,59.10644065100967,
Mechanical,HSF,Stimuli For Psychopy\Robotic\matched-32-cpi-low-c12.jpeg,matched-32-cpi-low-c12.jpeg,0,43,43,77,,,,,,,256.076075399993,256.076075399993,1,[0.0005263000057311729],[0.9912242999998853],18.518518518518505,1.0327964000025531,1.3599987141788006e-05,257.07635160000063,257.07635160000063,,,VYV,001,2023-04-16_21h50.01.102,trial uncanny,2022.2.5,59.10644065100967,
Humanoid,LSF,Stimuli For Psychopy\Robotic\matched-8-cpi-low-c69.jpeg,matched-8-cpi-low-c69.jpeg,0,44,44,23,,,,,,,260.111092799998,260.111092799998,1,[0.00040779999108053744],[0.991397899997537],7.592592592592595,0.6504588999960106,1.3599987141788006e-05,,,,,VYV,001,2023-04-16_21h50.01.102,trial uncanny,2022.2.5,59.10644065100967,
Mechanical,LSF,Stimuli For Psychopy\Robotic\matched-8-cpi-low-c41.jpeg,matched-8-cpi-low-c41.jpeg,0,45,45,73,,,,,,,263.9277482999896,263.9277482999896,2,"[0.0004952000017510727, 0.6598812000011094]","[0.5934694000025047, 0.993028900003992]",3.333333333333343,1.068880500009982,1.3299999409355223e-05,,,,,VYV,001,2023-04-16_21h50.01.102,trial uncanny,2022.2.5,59.10644065100967,
Mechanical,LSF,Stimuli For Psychopy\Robotic\matched-8-cpi-low-c17.jpeg,matched-8-cpi-low-c17.jpeg,0,46,46,65,,,,,,,267.9944218000019,267.9944218000019,1,[0.0006069000082788989],[0.9927870999963488],3.333333333333343,1.067188700006227,1.8099992303177714e-05,268.9945662999962,268.9945662999962,,,VYV,001,2023-04-16_21h50.01.102,trial uncanny,2022.2.5,59.10644065100967,
Humanoid,HSF,Stimuli For Psychopy\Robotic\matched-32-cpi-low-c48.jpeg,matched-32-cpi-low-c48.jpeg,0,47,47,30,,,,,,,272.21095329998934,272.21095329998934,1,[0.00040809999336488545],[0.992211300006602],-35.18518518518519,0.5483086000022013,1.3700002455152571e-05,273.2091340999905,273.2091340999905,,,VYV,001,2023-04-16_21h50.01.102,trial uncanny,2022.2.5,59.10644065100967,
Mechanical,BSF,Stimuli For Psychopy\Robotic\matched-c35.jpeg,matched-c35.jpeg,0,48,48,54,,,,,,,275.69415840000147,275.69415840000147,1,[0.0005298999894876033],[0.9569820999895455],51.66666666666666,0.4833964000135893,1.2899996363557875e-05,276.69428509999125,276.69428509999125,,,VYV,001,2023-04-16_21h50.01.102,trial uncanny,2022.2.5,59.10644065100967,
Mechanical,HSF,Stimuli For Psychopy\Robotic\matched-32-cpi-low-c37.jpeg,matched-32-cpi-low-c37.jpeg,0,49,49,86,,,,,,,279.20897319998767,279.20897319998767,1,[0.00036589999217540026],[0.978389399999287],40.74074074074073,0.6298988000053214,1.5000012353993952e-05,,,,,VYV,001,2023-04-16_21h50.01.102,trial uncanny,2022.2.5,59.10644065100967,
Mechanical,BSF,Stimuli For Psychopy\Robotic\matched-c38.jpeg,matched-c38.jpeg,0,50,50,57,,,,,,,282.7591293000005,282.7591293000005,4,"[0.008906999995815568, 0.5293173999962164, 0.5798834000015631, 0.8426862000051187]","[0.5131690999987768, 0.5630975000094622, 0.7940937000093982, 0.861187800008338]",63.51851851851853,0.5165221000061138,1.2999997125007212e-05,,,,,VYV,001,2023-04-16_21h50.01.102,trial uncanny,2022.2.5,59.10644065100967,
Humanoid,BSF,Stimuli For Psychopy\Robotic\matched-c61.jpeg,matched-c61.jpeg,0,51,51,2,,,,,,,286.24241409999377,286.24241409999377,3,"[0.0005964000010862947, 0.09245139999256935, 0.6425728000031086]","[0.059179799995035864, 0.6091422000026796, 0.9946820000041043]",12.777777777777771,0.962875700002769,1.8699996871873736e-05,287.24630949999846,287.24630949999846,,,VYV,001,2023-04-16_21h50.01.102,trial uncanny,2022.2.5,59.10644065100967,
Humanoid,BSF,Stimuli For Psychopy\Robotic\matched-c79.jpeg,matched-c79.jpeg,0,52,52,14,,,,,,,290.2107677999884,290.2107677999884,1,[0.0004317999992053956],[0.9925851000007242],21.1111111111111,0.8324894999968819,1.3800003216601908e-05,291.20886719999544,291.20886719999544,,,VYV,001,2023-04-16_21h50.01.102,trial uncanny,2022.2.5,59.10644065100967,
Mechanical,BSF,Stimuli For Psychopy\Robotic\matched-c11.jpeg,matched-c11.jpeg,0,53,53,46,,,,,,,294.12715979998757,294.12715979998757,1,[0.008513699998729862],[0.9953681999904802],5.185185185185176,0.7797655999893323,1.5400000847876072e-05,,,,,VYV,001,2023-04-16_21h50.01.102,trial uncanny,2022.2.5,59.10644065100967,
Humanoid,BSF,Stimuli For Psychopy\Robotic\matched-c58.jpeg,matched-c58.jpeg,0,54,54,1,,,,,,,297.8271473999921,297.8271473999921,3,"[0.04243079999287147, 0.6591379000019515, 0.8422060000011697]","[0.5946464000007836, 0.7256652999931248, 0.992528399990988]",-20.555555555555543,0.482445400004508,1.679999695625156e-05,298.8270007999963,298.8270007999963,,,VYV,001,2023-04-16_21h50.01.102,trial uncanny,2022.2.5,59.10644065100967,
Humanoid,HSF,Stimuli For Psychopy\Robotic\matched-32-cpi-low-c72.jpeg,matched-32-cpi-low-c72.jpeg,0,55,55,40,,,,,,,301.2753870000015,301.2753870000015,1,[0.0004972999886376783],[0.9924408999941079],6.481481481481495,0.8483985000057146,1.5199999324977398e-05,302.27679949998856,302.27679949998856,,,VYV,001,2023-04-16_21h50.01.102,trial uncanny,2022.2.5,59.10644065100967,
Humanoid,LSF,Stimuli For Psychopy\Robotic\matched-8-cpi-low-c64.jpeg,matched-8-cpi-low-c64.jpeg,0,56,56,19,,,,,,,305.09177849999105,305.09177849999105,2,"[0.008914100006222725, 0.32754270000441466]","[0.3092445000074804, 1.0090666000032797]",-11.111111111111114,1.4658116000064183,1.479999627918005e-05,306.09166939998977,306.09166939998977,,,VYV,001,2023-04-16_21h50.01.102,trial uncanny,2022.2.5,59.10644065100967,
Humanoid,HSF,Stimuli For Psychopy\Robotic\matched-32-cpi-low-c64.jpeg,matched-32-cpi-low-c64.jpeg,0,57,57,34,,,,,,,309.6601321999915,309.6601321999915,1,[0.010403299995232373],[1.010705799999414],-17.962962962962962,1.1138001999934204,1.3900003978051245e-05,310.6584731999901,310.6584731999901,,,VYV,001,2023-04-16_21h50.01.102,trial uncanny,2022.2.5,59.10644065100967,
Humanoid,LSF,Stimuli For Psychopy\Robotic\matched-8-cpi-low-c67.jpeg,matched-8-cpi-low-c67.jpeg,0,58,58,22,,,,,,,314.64383069999167,314.64383069999167,1,[0.000949399996898137],[0.9900500000076136],15.555555555555543,0.5973850000009406,1.2300006346777081e-05,315.6432316999999,315.6432316999999,,,VYV,001,2023-04-16_21h50.01.102,trial uncanny,2022.2.5,59.10644065100967,
Mechanical,BSF,Stimuli For Psychopy\Robotic\matched-c41.jpeg,matched-c41.jpeg,0,59,59,58,,,,,,,318.32659139999305,318.32659139999305,4,"[0.008771599997999147, 0.6101750999951037, 0.8270611000043573, 0.8918353999906685]","[0.5603784999984782, 0.8103551999956835, 0.8603216000046814, 1.010625800001435]",27.222222222222214,0.5511568000074476,1.2100004823878407e-05,319.32654860000184,319.32654860000184,,,VYV,001,2023-04-16_21h50.01.102,trial uncanny,2022.2.5,59.10644065100967,
Humanoid,LSF,Stimuli For Psychopy\Robotic\matched-8-cpi-low-c72.jpeg,matched-8-cpi-low-c72.jpeg,0,60,60,25,,,,,,,321.8914872999885,321.8914872999885,1,[0.3749595999979647],[0.9919339999905787],4.8148148148148096,0.8855444000073476,1.3199998647905886e-05,322.8913606999995,322.8913606999995,,,VYV,001,2023-04-16_21h50.01.102,trial uncanny,2022.2.5,59.10644065100967,
Humanoid,HSF,Stimuli For Psychopy\Robotic\matched-32-cpi-low-c65.jpeg,matched-32-cpi-low-c65.jpeg,0,61,61,35,,,,,,,325.7433161999943,325.7433161999943,4,"[0.010599899993394502, 0.19404950000171084, 0.24396859999978915, 0.8773197999980766]","[0.16051180000067689, 0.2107211999973515, 0.7947235000028741, 0.9966230999998515]",-15.925925925925924,0.4812736000021687,1.2400007108226418e-05,,,,,VYV,001,2023-04-16_21h50.01.102,trial uncanny,2022.2.5,59.10644065100967,
Humanoid,HSF,Stimuli For Psychopy\Robotic\matched-32-cpi-low-c76.jpeg,matched-32-cpi-low-c76.jpeg,0,62,62,42,,,,,,,329.2933781999891,329.2933781999891,1,[0.008983200008515269],[1.0089511999976821],1.6666666666666572,2.2356594000011683,1.3299999409355223e-05,330.29158299999835,330.29158299999835,,,VYV,001,2023-04-16_21h50.01.102,trial uncanny,2022.2.5,59.10644065100967,
Humanoid,BSF,Stimuli For Psychopy\Robotic\matched-c77.jpeg,matched-c77.jpeg,0,63,63,13,,,,,,,334.69135879998794,334.69135879998794,1,[0.0006710000016028062],[0.9928339000034612],41.296296296296305,1.165575599996373,1.2999997125007212e-05,335.69299409999803,335.69299409999803,,,VYV,001,2023-04-16_21h50.01.102,trial uncanny,2022.2.5,59.10644065100967,
Humanoid,LSF,Stimuli For Psychopy\Robotic\matched-8-cpi-low-c71.jpeg,matched-8-cpi-low-c71.jpeg,0,64,64,24,,,,,,,338.8929888999992,338.8929888999992,1,[0.0005483999993884936],[0.9100963999953819],39.81481481481481,0.533575599998585,1.2699994840659201e-05,339.89105759999075,339.89105759999075,,,VYV,001,2023-04-16_21h50.01.102,trial uncanny,2022.2.5,59.10644065100967,
Mechanical,LSF,Stimuli For Psychopy\Robotic\matched-8-cpi-low-c43.jpeg,matched-8-cpi-low-c43.jpeg,0,65,65,66,,,,,,,342.49113619999844,342.49113619999844,1,[0.0003645999968284741],[0.9778061999968486],50.55555555555554,0.7481215000007069,1.3699987903237343e-05,,,,,VYV,001,2023-04-16_21h50.01.102,trial uncanny,2022.2.5,59.10644065100967,
Humanoid,HSF,Stimuli For Psychopy\Robotic\matched-32-cpi-low-c61.jpeg,matched-32-cpi-low-c61.jpeg,0,66,66,32,,,,,,,346.2760441999999,346.2760441999999,2,"[0.009002199993119575, 0.84213199999067]","[0.6588321000017459, 1.0079882999998517]",-16.666666666666657,0.4819826000020839,1.4700010069645941e-05,347.2926470999955,347.2926470999955,,,VYV,001,2023-04-16_21h50.01.102,trial uncanny,2022.2.5,59.10644065100967,
Mechanical,HSF,Stimuli For Psychopy\Robotic\matched-32-cpi-low-c11.jpeg,matched-32-cpi-low-c11.jpeg,0,67,67,76,,,,,,,349.77416239999,349.77416239999,1,[0.0004771999956574291],[0.9904884999996284],-51.66666666666667,0.6002357999968808,1.4899997040629387e-05,350.77426079999714,350.77426079999714,,,VYV,001,2023-04-16_21h50.01.102,trial uncanny,2022.2.5,59.10644065100967,
Mechanical,LSF,Stimuli For Psychopy\Robotic\matched-8-cpi-low-c27.jpeg,matched-8-cpi-low-c27.jpeg,0,68,68,67,,,,,,,353.7593576999934,353.7593576999934,1,[0.0005246999935479835],[0.9949043999949936],-37.4074074074074,0.5618102000007639,1.3299999409355223e-05,354.761130999992,354.761130999992,,,VYV,001,2023-04-16_21h50.01.102,trial uncanny,2022.2.5,59.10644065100967,
Humanoid,BSF,Stimuli For Psychopy\Robotic\matched-c69.jpeg,matched-c69.jpeg,0,69,69,8,,,,,,,357.37636109998857,357.37636109998857,1,[0.0007175999926403165],[0.9577835999953095],13.333333333333329,0.9162761999905342,1.5400000847876072e-05,358.37566159998823,358.37566159998823,,,VYV,001,2023-04-16_21h50.01.102,trial uncanny,2022.2.5,59.10644065100967,
Mechanical,HSF,Stimuli For Psychopy\Robotic\matched-32-cpi-low-c43.jpeg,matched-32-cpi-low-c43.jpeg,0,70,70,81,,,,,,,361.5090244999883,361.5090244999883,5,"[0.0004681999998865649, 0.17583079999894835, 0.6090992000099504, 0.8575093000108609, 0.9079204000008758]","[0.12565610000456218, 0.5410380000103032, 0.8258551000035368, 0.8764182000013534, 0.9256242000119528]",32.22222222222223,0.98307040000509,1.6000005416572094e-05,362.5071835999988,362.5071835999988,,,VYV,001,2023-04-16_21h50.01.102,trial uncanny,2022.2.5,59.10644065100967,
Mechanical,LSF,Stimuli For Psychopy\Robotic\matched-8-cpi-low-c12.jpeg,matched-8-cpi-low-c12.jpeg,0,71,71,62,,,,,,,365.4904180000012,365.4904180000012,1,[0.0006236000044737011],[0.6764661000052001],2.037037037037038,0.582666699992842,1.2699994840659201e-05,366.4924953000009,366.4924953000009,,,VYV,001,2023-04-16_21h50.01.102,trial uncanny,2022.2.5,59.10644065100967,
Humanoid,BSF,Stimuli For Psychopy\Robotic\matched-c48.jpeg,matched-c48.jpeg,0,72,72,0,,,,,,,369.1906489999965,369.1906489999965,2,"[0.00046440000005532056, 0.9088542999961646]","[0.8253753000026336, 0.9905575000011595]",-18.888888888888886,0.4157365999999456,1.3600001693703234e-05,370.19054999999935,370.19054999999935,,,VYV,001,2023-04-16_21h50.01.102,trial uncanny,2022.2.5,59.10644065100967,
Mechanical,HSF,Stimuli For Psychopy\Robotic\matched-32-cpi-low-c41.jpeg,matched-32-cpi-low-c41.jpeg,0,73,73,88,,,,,,,372.55908700000145,372.55908700000145,1,[0.0005356000037863851],[0.9785199000034481],-0.9259259259259238,1.3647109000012279,1.3299999409355223e-05,,,,,VYV,001,2023-04-16_21h50.01.102,trial uncanny,2022.2.5,59.10644065100967,
Mechanical,BSF,Stimuli For Psychopy\Robotic\matched-c33.jpeg,matched-c33.jpeg,0,74,74,53,,,,,,,377.12379379999766,377.12379379999766,1,[0.008581700007198378],[0.7753598999988753],37.03703703703701,0.5815079000021797,1.2900010915473104e-05,378.1236913999892,378.1236913999892,,,VYV,001,2023-04-16_21h50.01.102,trial uncanny,2022.2.5,59.10644065100967,
Humanoid,BSF,Stimuli For Psychopy\Robotic\matched-c72.jpeg,matched-c72.jpeg,0,75,75,10,,,,,,,380.75680449999345,380.75680449999345,1,[0.0003961000038543716],[0.7907514999969862],22.962962962962962,0.61469109999598,1.3199998647905886e-05,381.7584294999979,381.7584294999979,,,VYV,001,2023-04-16_21h50.01.102,trial uncanny,2022.2.5,59.10644065100967,
Humanoid,LSF,Stimuli For Psychopy\Robotic\matched-8-cpi-low-c76.jpeg,matched-8-cpi-low-c76.jpeg,0,76,76,27,,,,,,,384.37345529999584,384.37345529999584,1,[0.0004437999887159094],[0.9927089999982854],-7.7777777777777715,0.7807324000023073,1.3999990187585354e-05,385.3750813999941,385.3750813999941,,,VYV,001,2023-04-16_21h50.01.102,trial uncanny,2022.2.5,59.10644065100967,
Mechanical,HSF,Stimuli For Psychopy\Robotic\matched-32-cpi-low-c16.jpeg,matched-32-cpi-low-c16.jpeg,0,77,77,79,,,,,,,388.1066542999906,388.1066542999906,5,"[0.008965300003183074, 0.7108689000015147, 0.7609142000001157, 0.8607839000032982, 0.9256052999990061]","[0.6107871999993222, 0.7441016999946442, 0.8440074999962235, 0.8774300999939442, 0.9944445000000997]",-30.740740740740733,0.7151892999972915,1.589999010320753e-05,,,,,VYV,001,2023-04-16_21h50.01.102,trial uncanny,2022.2.5,59.10644065100967,
Humanoid,BSF,Stimuli For Psychopy\Robotic\matched-c67.jpeg,matched-c67.jpeg,0,78,78,7,,,,,,,391.82361479999963,391.82361479999963,2,"[0.009866499996860512, 0.4760787999985041]","[0.3094948000070872, 1.0077002000034554]",4.8148148148148096,1.6831547000037972,1.3700002455152571e-05,392.824970799993,392.824970799993,,,VYV,001,2023-04-16_21h50.01.102,trial uncanny,2022.2.5,59.10644065100967,
Mechanical,BSF,Stimuli For Psychopy\Robotic\matched-c42.jpeg,matched-c42.jpeg,0,79,79,59,,,,,,,396.59154929999204,396.59154929999204,1,[0.0004301000008126721],[1.007342900004005],22.22222222222223,0.6853439000115031,1.4300007023848593e-05,397.6065855999914,397.6065855999914,,,VYV,001,2023-04-16_21h50.01.102,trial uncanny,2022.2.5,59.10644065100967,
Humanoid,LSF,Stimuli For Psychopy\Robotic\matched-8-cpi-low-c48.jpeg,matched-8-cpi-low-c48.jpeg,0,80,80,15,,,,,,,400.50682419999794,400.50682419999794,1,[0.010900499997660518],[1.0106897999939974],-11.111111111111114,1.3145714000129374,1.340000017080456e-05,401.50651300000027,401.50651300000027,,,VYV,001,2023-04-16_21h50.01.102,trial uncanny,2022.2.5,59.10644065100967,
Humanoid,BSF,Stimuli For Psychopy\Robotic\matched-c65.jpeg,matched-c65.jpeg,0,81,81,5,,,,,,,404.7728261000011,404.7728261000011,1,[0.00047220000124070793],[0.9922411000006832],-11.851851851851848,1.2995422999956645,1.3600001693703234e-05,405.77460489999794,405.77460489999794,,,VYV,001,2023-04-16_21h50.01.102,trial uncanny,2022.2.5,59.10644065100967,
Humanoid,BSF,Stimuli For Psychopy\Robotic\matched-c74.jpeg,matched-c74.jpeg,0,82,82,11,,,,,,,409.02310019999277,409.02310019999277,1,[0.00042359999497421086],[0.9921125999971991],5.925925925925938,1.0149222999898484,1.3199998647905886e-05,410.02474199999415,410.02474199999415,,,VYV,001,2023-04-16_21h50.01.102,trial uncanny,2022.2.5,59.10644065100967,
Mechanical,BSF,Stimuli For Psychopy\Robotic\matched-c17.jpeg,matched-c17.jpeg,0,83,83,50,,,,,,,412.9728821999888,412.9728821999888,2,"[0.0004558000073302537, 0.8272275000053924]","[0.8094621000054758, 0.9921698000107426]",8.703703703703695,0.7994820000021718,1.3800003216601908e-05,413.97296970000025,413.97296970000025,,,VYV,001,2023-04-16_21h50.01.102,trial uncanny,2022.2.5,59.10644065100967,
Mechanical,BSF,Stimuli For Psychopy\Robotic\matched-c16.jpeg,matched-c16.jpeg,0,84,84,49,,,,,,,416.7414420999994,416.7414420999994,1,[0.00039069999183993787],[0.99282129999483],10.370370370370367,1.1481553000048734,1.2599994079209864e-05,417.74138349998975,417.74138349998975,,,VYV,001,2023-04-16_21h50.01.102,trial uncanny,2022.2.5,59.10644065100967,
Mechanical,LSF,Stimuli For Psychopy\Robotic\matched-8-cpi-low-c11.jpeg,matched-8-cpi-low-c11.jpeg,0,85,85,61,,,,,,,420.88931899999443,420.88931899999443,2,"[0.0005680999893229455, 0.8924727999983588]","[0.8429474999866216, 0.9093020999862347]",6.2962962962962905,1.3649073999986285,1.2300006346777081e-05,,,,,VYV,001,2023-04-16_21h50.01.102,trial uncanny,2022.2.5,59.10644065100967,
Mechanical,LSF,Stimuli For Psychopy\Robotic\matched-8-cpi-low-c35.jpeg,matched-8-cpi-low-c35.jpeg,0,86,86,69,,,,,,,425.2745036999986,425.2745036999986,1,[0.00035519999801181257],[0.9930306000023847],14.444444444444443,0.9831919999996899,1.309999788645655e-05,426.2743769999943,426.2743769999943,,,VYV,001,2023-04-16_21h50.01.102,trial uncanny,2022.2.5,59.10644065100967,
Humanoid,LSF,Stimuli For Psychopy\Robotic\matched-8-cpi-low-c66.jpeg,matched-8-cpi-low-c66.jpeg,0,87,87,21,,,,,,,429.2741615999985,429.2741615999985,1,[0.00044249999336898327],[0.994335499999579],-13.888888888888886,0.5493774000060512,1.4200006262399256e-05,430.27263929999026,430.27263929999026,,,VYV,001,2023-04-16_21h50.01.102,trial uncanny,2022.2.5,59.10644065100967,
Humanoid,LSF,Stimuli For Psychopy\Robotic\matched-8-cpi-low-c74.jpeg,matched-8-cpi-low-c74.jpeg,0,88,88,26,,,,,,,432.77417140000034,432.77417140000034,2,"[0.008798800001386553, 0.19206069999199826]","[0.17532539999228902, 1.0087683000019751]",7.037037037037038,0.7185624999983702,1.5000012353993952e-05,433.7723421999981,433.7723421999981,,,VYV,001,2023-04-16_21h50.01.102,trial uncanny,2022.2.5,59.10644065100967,
Mechanical,HSF,Stimuli For Psychopy\Robotic\matched-32-cpi-low-c36.jpeg,matched-32-cpi-low-c36.jpeg,0,89,89,85,,,,,,,436.40546979999635,436.40546979999635,2,"[0.0004563999973470345, 0.6753407999931369]","[0.6257313999958569, 0.9928005999972811]",-29.81481481481481,0.46612070000264794,1.5099998563528061e-05,437.407686999999,437.407686999999,,,VYV,001,2023-04-16_21h50.01.102,trial uncanny,2022.2.5,59.10644065100967,
,,,,,,,,,,,,,,,,,,,,,,,,0.00025630000163801014,1.0001975000050152,,,,,,,
