Type,Spatial_Frequency,filepath,file_name,robotic_trials.thisRepN,robotic_trials.thisTrialN,robotic_trials.thisN,robotic_trials.thisIndex,instruction.started,key_resp.started,key_resp.keys,key_resp.rt,etRecord.started,etRecord.stopped,Robotic__Stimuli.started,roi.started,Robotic__Stimuli.stopped,roi.stopped,roi.numLooks,roi.timesOn,roi.timesOff,M_H_likeness_slider.response,M_H_likeness_slider.rt,ISI_2.started,etRecord_2.started,etRecord_2.stopped,participant,session,date,expName,psychopyVersion,frameRate,
,,,,,,,,21.57804719998967,21.57804719998967,space,0.574022500004503,,,,,,,,,,,,,,,VYV,001,2023-04-16_22h07.15.797,trial uncanny,2022.2.5,60.055731720425214,
Mechanical,LSF,Stimuli For Psychopy\Robotic\matched-8-cpi-low-c38.jpeg,matched-8-cpi-low-c38.jpeg,0,0,0,72,,,,,1.5199999324977398e-05,1.5199999324977398e-05,23.17584050000005,23.17584050000005,24.17406379999011,24.17406379999011,1,[0.0005653999978676438],[0.9890688000014052],31.2962962962963,0.5997568000020692,1.340000017080456e-05,,,VYV,001,2023-04-16_22h07.15.797,trial uncanny,2022.2.5,60.055731720425214,
Mechanical,HSF,Stimuli For Psychopy\Robotic\matched-32-cpi-low-c41.jpeg,matched-32-cpi-low-c41.jpeg,0,1,1,88,,,,,,,27.772975500003668,27.772975500003668,28.77275329999975,28.77275329999975,1,[0.0003843000013148412],[0.9901377000060165],22.499999999999996,0.5311233999964315,1.270000939257443e-05,,,VYV,001,2023-04-16_22h07.15.797,trial uncanny,2022.2.5,60.055731720425214,
Humanoid,HSF,Stimuli For Psychopy\Robotic\matched-32-cpi-low-c72.jpeg,matched-32-cpi-low-c72.jpeg,0,2,2,40,,,,,,,31.205015300001833,31.205015300001833,32.20786169999337,32.20786169999337,1,[0.00048489999608136714],[0.9910043999989284],53.333333333333336,1.4129718000040157,1.2300006346777081e-05,,,VYV,001,2023-04-16_22h07.15.797,trial uncanny,2022.2.5,60.055731720425214,
Mechanical,BSF,Stimuli For Psychopy\Robotic\matched-c17.jpeg,matched-c17.jpeg,0,3,3,50,,,,,,,35.72486790000403,35.72486790000403,36.72516679999535,36.72516679999535,1,[0.009352099994430318],[1.0096377000008943],1.2962962962962954,1.9803022999985842,1.2599994079209864e-05,,,VYV,001,2023-04-16_22h07.15.797,trial uncanny,2022.2.5,60.055731720425214,
Mechanical,BSF,Stimuli For Psychopy\Robotic\matched-c43.jpeg,Matched-c43.jpeg,0,4,4,51,,,,,,,41.35609279999335,41.35609279999335,,,1,[0.007643099990673363],[0.994700199997169],3.4259259259259265,0.7146134999929927,1.3500000932253897e-05,,,VYV,001,2023-04-16_22h07.15.797,trial uncanny,2022.2.5,60.055731720425214,
Mechanical,BSF,Stimuli For Psychopy\Robotic\matched-c10.jpeg,matched-c10.jpeg,0,5,5,45,,,,,,,45.02284150000196,45.02284150000196,46.0224867999932,46.0224867999932,1,[0.00045680000039283186],[0.9898719000048004],0.09259259259259411,1.1813031000056071,1.309999788645655e-05,,,VYV,001,2023-04-16_22h07.15.797,trial uncanny,2022.2.5,60.055731720425214,
Humanoid,LSF,Stimuli For Psychopy\Robotic\matched-8-cpi-low-c72.jpeg,matched-8-cpi-low-c72.jpeg,0,6,6,25,,,,,,,49.55798659998982,49.55798659998982,,,1,[0.009262999999918975],[1.005623100005323],28.425925925925927,0.4982482000050368,1.340000017080456e-05,,,VYV,001,2023-04-16_22h07.15.797,trial uncanny,2022.2.5,60.055731720425214,
Humanoid,LSF,Stimuli For Psychopy\Robotic\matched-8-cpi-low-c48.jpeg,matched-8-cpi-low-c48.jpeg,0,7,7,15,,,,,,,53.0541358999908,53.0541358999908,54.055616600002395,54.055616600002395,1,[0.0003842000005533919],[0.988741499997559],14.074074074074073,1.4340438999934122,1.2200005585327744e-05,,,VYV,001,2023-04-16_22h07.15.797,trial uncanny,2022.2.5,60.055731720425214,
Mechanical,LSF,Stimuli For Psychopy\Robotic\matched-8-cpi-low-c27.jpeg,matched-8-cpi-low-c27.jpeg,0,8,8,67,,,,,,,57.52442839999276,57.52442839999276,,,3,"[0.00890070000605192, 0.8758127000037348, 0.906554999994114]","[0.8419885000039358, 0.8900507999933325, 0.9238331999949878]",4.351851851851851,0.6178713000117568,2.1200001356191933e-05,,,VYV,001,2023-04-16_22h07.15.797,trial uncanny,2022.2.5,60.055731720425214,
Humanoid,HSF,Stimuli For Psychopy\Robotic\matched-32-cpi-low-c63.jpeg,matched-32-cpi-low-c63.jpeg,0,9,9,33,,,,,,,61.103800700002466,61.103800700002466,62.107594999994035,62.107594999994035,3,"[0.0004008999967481941, 0.10887490000459366, 0.3252626000030432]","[0.09201100000063889, 0.3083840000035707, 0.9921032999991439]",37.5,1.2811706000065897,1.3800003216601908e-05,,,VYV,001,2023-04-16_22h07.15.797,trial uncanny,2022.2.5,60.055731720425214,
Humanoid,LSF,Stimuli For Psychopy\Robotic\matched-8-cpi-low-c71.jpeg,matched-8-cpi-low-c71.jpeg,0,10,10,24,,,,,,,65.45494119999057,65.45494119999057,66.4551930000016,66.4551930000016,1,[0.0003890000079991296],[0.9903292000090005],43.148148148148145,0.8826198000024306,1.2600008631125093e-05,,,VYV,001,2023-04-16_22h07.15.797,trial uncanny,2022.2.5,60.055731720425214,
Humanoid,LSF,Stimuli For Psychopy\Robotic\matched-8-cpi-low-c63.jpeg,matched-8-cpi-low-c63.jpeg,0,11,11,18,,,,,,,69.40378729999065,69.40378729999065,70.40731189999497,70.40731189999497,1,[0.0004158999945502728],[0.9944832999899518],41.11111111111111,0.4626535999996122,1.3900003978051245e-05,,,VYV,001,2023-04-16_22h07.15.797,trial uncanny,2022.2.5,60.055731720425214,
Mechanical,HSF,Stimuli For Psychopy\Robotic\matched-32-cpi-low-c12.jpeg,matched-32-cpi-low-c12.jpeg,0,12,12,77,,,,,,,72.80392059999576,72.80392059999576,73.80703640000138,73.80703640000138,1,[0.0004499000060604885],[0.9923113999975612],8.796296296296296,0.5976307000091765,1.2400007108226418e-05,,,VYV,001,2023-04-16_22h07.15.797,trial uncanny,2022.2.5,60.055731720425214,
Humanoid,BSF,Stimuli For Psychopy\Robotic\matched-c67.jpeg,matched-c67.jpeg,0,13,13,7,,,,,,,76.45488689999911,76.45488689999911,77.4536408999993,77.4536408999993,1,[0.000334399999701418],[0.9919703000050504],41.2037037037037,0.6146739999967394,1.3700002455152571e-05,,,VYV,001,2023-04-16_22h07.15.797,trial uncanny,2022.2.5,60.055731720425214,
Mechanical,LSF,Stimuli For Psychopy\Robotic\matched-8-cpi-low-c12.jpeg,matched-8-cpi-low-c12.jpeg,0,14,14,62,,,,,,,79.99074769999424,79.99074769999424,80.9903828999959,80.9903828999959,1,[0.0007719000132055953],[0.9626450000068871],1.2962962962962954,0.6806686000054469,1.2499993317760527e-05,,,VYV,001,2023-04-16_22h07.15.797,trial uncanny,2022.2.5,60.055731720425214,
Mechanical,BSF,Stimuli For Psychopy\Robotic\matched-c42.jpeg,matched-c42.jpeg,0,15,15,59,,,,,,,83.60311080000247,83.60311080000247,84.60493829999177,84.60493829999177,1,[0.00037989999691490084],[0.9393275999900652],5.648148148148147,0.632560400001239,1.2199991033412516e-05,,,VYV,001,2023-04-16_22h07.15.797,trial uncanny,2022.2.5,60.055731720425214,
Humanoid,LSF,Stimuli For Psychopy\Robotic\matched-8-cpi-low-c58.jpeg,matched-8-cpi-low-c58.jpeg,0,16,16,16,,,,,,,87.18721160000132,87.18721160000132,88.18824139999924,88.18824139999924,1,[0.00036689999978989363],[0.9899905999918701],38.98148148148148,0.4983165000012377,1.270000939257443e-05,,,VYV,001,2023-04-16_22h07.15.797,trial uncanny,2022.2.5,60.055731720425214,
Humanoid,BSF,Stimuli For Psychopy\Robotic\matched-c61.jpeg,matched-c61.jpeg,0,17,17,2,,,,,,,90.70589119999204,90.70589119999204,91.72168729999976,91.72168729999976,1,[0.000559599997359328],[1.004917199999909],44.81481481481481,0.38461710000410676,1.2400007108226418e-05,,,VYV,001,2023-04-16_22h07.15.797,trial uncanny,2022.2.5,60.055731720425214,
Humanoid,HSF,Stimuli For Psychopy\Robotic\matched-32-cpi-low-c64.jpeg,matched-32-cpi-low-c64.jpeg,0,18,18,34,,,,,,,94.33770399999048,94.33770399999048,95.33811769999738,95.33811769999738,1,[0.0004894000012427568],[0.9908181999926455],43.24074074074074,0.46408819999487605,1.4300007023848593e-05,,,VYV,001,2023-04-16_22h07.15.797,trial uncanny,2022.2.5,60.055731720425214,
Humanoid,BSF,Stimuli For Psychopy\Robotic\matched-c69.jpeg,matched-c69.jpeg,0,19,19,8,,,,,,,97.73725920000288,97.73725920000288,98.73799189999409,98.73799189999409,1,[0.0004732000088552013],[0.9904176000127336],46.75925925925926,0.4330282000009902,1.3199998647905886e-05,,,VYV,001,2023-04-16_22h07.15.797,trial uncanny,2022.2.5,60.055731720425214,
Mechanical,HSF,Stimuli For Psychopy\Robotic\matched-32-cpi-low-c42.jpeg,matched-32-cpi-low-c42.jpeg,0,20,20,89,,,,,,,101.13747960000183,101.13747960000183,102.13640950000263,102.13640950000263,1,[0.0004486999969230965],[0.9898759999923641],5.277777777777776,0.8478316999971867,1.3500000932253897e-05,,,VYV,001,2023-04-16_22h07.15.797,trial uncanny,2022.2.5,60.055731720425214,
Humanoid,HSF,Stimuli For Psychopy\Robotic\matched-32-cpi-low-c58.jpeg,matched-32-cpi-low-c58.jpeg,0,21,21,31,,,,,,,105.02110009999888,105.02110009999888,106.02103760000318,106.02103760000318,1,[0.0004442999925231561],[0.9913822999951662],30.648148148148145,0.4798679999948945,1.3199998647905886e-05,,,VYV,001,2023-04-16_22h07.15.797,trial uncanny,2022.2.5,60.055731720425214,
Mechanical,BSF,Stimuli For Psychopy\Robotic\matched-c35.jpeg,matched-c35.jpeg,0,22,22,54,,,,,,,108.43772159999935,108.43772159999935,109.43981589999748,109.43981589999748,1,[0.00036079999699722975],[0.958352300003753],0.2777777777777768,0.7308094000036363,1.340000017080456e-05,,,VYV,001,2023-04-16_22h07.15.797,trial uncanny,2022.2.5,60.055731720425214,
Humanoid,LSF,Stimuli For Psychopy\Robotic\matched-8-cpi-low-c64.jpeg,matched-8-cpi-low-c64.jpeg,0,23,23,19,,,,,,,112.42059349999181,112.42059349999181,113.41935779999767,113.41935779999767,1,[0.0003547000087564811],[0.9908751000039047],37.31481481481481,0.4986889000138035,1.4300007023848593e-05,,,VYV,001,2023-04-16_22h07.15.797,trial uncanny,2022.2.5,60.055731720425214,
Humanoid,HSF,Stimuli For Psychopy\Robotic\matched-32-cpi-low-c67.jpeg,matched-32-cpi-low-c67.jpeg,0,24,24,37,,,,,,,115.85481930000242,115.85481930000242,116.8561936999904,116.8561936999904,1,[0.0005080999981146306],[0.9919888000003994],38.148148148148145,0.430699899996398,1.2600008631125093e-05,,,VYV,001,2023-04-16_22h07.15.797,trial uncanny,2022.2.5,60.055731720425214,
Mechanical,LSF,Stimuli For Psychopy\Robotic\matched-8-cpi-low-c37.jpeg,matched-8-cpi-low-c37.jpeg,0,25,25,71,,,,,,,119.25651619999553,119.25651619999553,120.25263099999574,120.25263099999574,1,[0.00047849999100435525],[0.912163299988606],2.4074074074074083,0.547321500009275,1.3199998647905886e-05,,,VYV,001,2023-04-16_22h07.15.797,trial uncanny,2022.2.5,60.055731720425214,
Humanoid,LSF,Stimuli For Psychopy\Robotic\matched-8-cpi-low-c67.jpeg,matched-8-cpi-low-c67.jpeg,0,26,26,22,,,,,,,122.73972820000199,122.73972820000199,123.73937149999256,123.73937149999256,1,[0.0003935999993700534],[0.9955164999992121],38.7962962962963,0.3793891000095755,1.5700003132224083e-05,,,VYV,001,2023-04-16_22h07.15.797,trial uncanny,2022.2.5,60.055731720425214,
Mechanical,BSF,Stimuli For Psychopy\Robotic\matched-c38.jpeg,matched-c38.jpeg,0,27,27,57,,,,,,,126.03533879999304,126.03533879999304,127.03933010000037,127.03933010000037,1,[0.000414399997680448],[0.9926394000067376],1.944444444444443,0.7976253000088036,1.6200006939470768e-05,,,VYV,001,2023-04-16_22h07.15.797,trial uncanny,2022.2.5,60.055731720425214,
Mechanical,LSF,Stimuli For Psychopy\Robotic\matched-8-cpi-low-c10.jpeg,matched-8-cpi-low-c10.jpeg,0,28,28,60,,,,,,,129.68703990000358,129.68703990000358,130.70235349998984,130.70235349998984,3,"[0.0003786000015679747, 0.7755580999946687, 0.8089425999933155]","[0.7589593000011519, 0.7922271999996156, 1.0054442999971798]",0.9259259259259245,1.1992553000018233,1.340000017080456e-05,,,VYV,001,2023-04-16_22h07.15.797,trial uncanny,2022.2.5,60.055731720425214,
Mechanical,LSF,Stimuli For Psychopy\Robotic\matched-8-cpi-low-c43.jpeg,matched-8-cpi-low-c43.jpeg,0,29,29,66,,,,,,,134.0061865000025,134.0061865000025,,,1,[0.0063889000011840835],[1.0057048000016948],0.9259259259259245,0.6985172999993665,1.3299999409355223e-05,,,VYV,001,2023-04-16_22h07.15.797,trial uncanny,2022.2.5,60.055731720425214,
Mechanical,HSF,Stimuli For Psychopy\Robotic\matched-32-cpi-low-c11.jpeg,matched-32-cpi-low-c11.jpeg,0,30,30,76,,,,,,,137.9709487999935,137.9709487999935,138.97235090000322,138.97235090000322,1,[0.00041449999844189733],[0.9907691999978852],1.0185185185185186,1.0794286000018474,1.4800010831095278e-05,,,VYV,001,2023-04-16_22h07.15.797,trial uncanny,2022.2.5,60.055731720425214,
Mechanical,HSF,Stimuli For Psychopy\Robotic\matched-32-cpi-low-c43.jpeg,matched-32-cpi-low-c43.jpeg,0,31,31,81,,,,,,,142.02027880000242,142.02027880000242,143.0352988999948,143.0352988999948,1,[0.0004616000078385696],[1.0070719000068493],2.685185185185185,0.6479123000026448,1.410000550094992e-05,,,VYV,001,2023-04-16_22h07.15.797,trial uncanny,2022.2.5,60.055731720425214,
Mechanical,BSF,Stimuli For Psychopy\Robotic\matched-c16.jpeg,matched-c16.jpeg,0,32,32,49,,,,,,,145.71838559999014,145.71838559999014,146.72226670000236,146.72226670000236,3,"[0.0003786999877775088, 0.525943799992092, 0.5591691999870818]","[0.4762644000002183, 0.5424367999949027, 0.8927844999998342]",0.9259259259259245,0.7145107999967877,1.3500000932253897e-05,,,VYV,001,2023-04-16_22h07.15.797,trial uncanny,2022.2.5,60.055731720425214,
Humanoid,BSF,Stimuli For Psychopy\Robotic\matched-c64.jpeg,matched-c64.jpeg,0,33,33,4,,,,,,,149.8352065999934,149.8352065999934,150.83869969999068,150.83869969999068,1,[0.000428599989390932],[0.9918300999997882],41.75925925925926,0.4146054000011645,1.8799997633323073e-05,,,VYV,001,2023-04-16_22h07.15.797,trial uncanny,2022.2.5,60.055731720425214,
Humanoid,HSF,Stimuli For Psychopy\Robotic\matched-32-cpi-low-c65.jpeg,matched-32-cpi-low-c65.jpeg,0,34,34,35,,,,,,,153.23674939999182,153.23674939999182,154.23857509999652,154.23857509999652,1,[0.0005904999998165295],[0.9922880999947665],46.574074074074076,0.37962700000207406,1.4399993233382702e-05,,,VYV,001,2023-04-16_22h07.15.797,trial uncanny,2022.2.5,60.055731720425214,
Mechanical,HSF,Stimuli For Psychopy\Robotic\matched-32-cpi-low-c16.jpeg,matched-32-cpi-low-c16.jpeg,0,35,35,79,,,,,,,156.61954259999038,156.61954259999038,157.61993889999576,157.61993889999576,1,[0.00043110000842716545],[0.9901458000094863],24.537037037037035,0.5164449000003515,1.239999255631119e-05,,,VYV,001,2023-04-16_22h07.15.797,trial uncanny,2022.2.5,60.055731720425214,
Mechanical,LSF,Stimuli For Psychopy\Robotic\matched-8-cpi-low-c11.jpeg,matched-8-cpi-low-c11.jpeg,0,36,36,61,,,,,,,160.0347158999939,160.0347158999939,161.03525659999286,161.03525659999286,2,"[0.00046470000233966857, 0.5926756999979261]","[0.5758549000020139, 0.9925537999952212]",9.814814814814815,0.41409930000372697,1.3500000932253897e-05,,,VYV,001,2023-04-16_22h07.15.797,trial uncanny,2022.2.5,60.055731720425214,
Mechanical,LSF,Stimuli For Psychopy\Robotic\matched-8-cpi-low-c41.jpeg,matched-8-cpi-low-c41.jpeg,0,37,37,73,,,,,,,163.40541880000092,163.40541880000092,164.40518989998964,164.40518989998964,2,"[0.00040160000207833946, 0.9957367999886628]","[0.9620239999931073, 0.9957397999969544]",14.629629629629632,0.562857900004019,1.5300000086426735e-05,,,VYV,001,2023-04-16_22h07.15.797,trial uncanny,2022.2.5,60.055731720425214,
Mechanical,HSF,Stimuli For Psychopy\Robotic\matched-32-cpi-low-c10.jpeg,matched-32-cpi-low-c10.jpeg,0,38,38,75,,,,,,,166.90502069999638,166.90502069999638,167.91830109999864,167.91830109999864,3,"[0.0006256000051507726, 0.7563122999999905, 0.9376159999956144]","[0.7231108999985736, 0.7729893000068842, 1.0032179999980144]",9.907407407407408,1.2837204999959795,1.4099990949034691e-05,,,VYV,001,2023-04-16_22h07.15.797,trial uncanny,2022.2.5,60.055731720425214,
Mechanical,BSF,Stimuli For Psychopy\Robotic\matched-c14.jpeg,matched-c14.jpeg,0,39,39,48,,,,,,,171.18883739999728,171.18883739999728,,,1,[0.008889500008081086],[1.0052805000013905],4.4444444444444455,0.5850349999964237,1.3299999409355223e-05,,,VYV,001,2023-04-16_22h07.15.797,trial uncanny,2022.2.5,60.055731720425214,
Humanoid,BSF,Stimuli For Psychopy\Robotic\matched-c63.jpeg,matched-c63.jpeg,0,40,40,3,,,,,,,174.7693908999936,174.7693908999936,175.76999239998986,175.76999239998986,1,[0.00045140000293031335],[0.9899405000032857],31.851851851851855,0.7001089999976102,1.309999788645655e-05,,,VYV,001,2023-04-16_22h07.15.797,trial uncanny,2022.2.5,60.055731720425214,
Mechanical,BSF,Stimuli For Psychopy\Robotic\matched-c11.jpeg,matched-c11.jpeg,0,41,41,46,,,,,,,178.5694543999998,178.5694543999998,179.56950030000007,179.56950030000007,1,[0.0005807999987155199],[0.9902247999998508],34.166666666666664,0.9821667999931378,1.550000160932541e-05,,,VYV,001,2023-04-16_22h07.15.797,trial uncanny,2022.2.5,60.055731720425214,
Humanoid,HSF,Stimuli For Psychopy\Robotic\matched-32-cpi-low-c69.jpeg,matched-32-cpi-low-c69.jpeg,0,42,42,38,,,,,,,182.6864734999981,182.6864734999981,183.68808140000328,183.68808140000328,1,[0.0004461999924387783],[0.9910608999925898],45.55555555555556,0.8644253999955254,1.3199998647905886e-05,,,VYV,001,2023-04-16_22h07.15.797,trial uncanny,2022.2.5,60.055731720425214,
Humanoid,BSF,Stimuli For Psychopy\Robotic\matched-c48.jpeg,matched-c48.jpeg,0,43,43,0,,,,,,,186.4513159999915,186.4513159999915,187.45268469999428,187.45268469999428,2,"[0.0005000000091968104, 0.44232080000801943]","[0.3088787000015145, 0.9883699000056367]",41.11111111111111,0.7345261000009486,1.3299999409355223e-05,,,VYV,001,2023-04-16_22h07.15.797,trial uncanny,2022.2.5,60.055731720425214,
Humanoid,LSF,Stimuli For Psychopy\Robotic\matched-8-cpi-low-c61.jpeg,matched-8-cpi-low-c61.jpeg,0,44,44,17,,,,,,,190.1174522999936,190.1174522999936,191.11928620000253,191.11928620000253,1,[0.0003952999977627769],[0.9907398000068497],42.592592592592595,0.7828733000060311,1.4399993233382702e-05,,,VYV,001,2023-04-16_22h07.15.797,trial uncanny,2022.2.5,60.055731720425214,
Mechanical,LSF,Stimuli For Psychopy\Robotic\matched-8-cpi-low-c17.jpeg,matched-8-cpi-low-c17.jpeg,0,45,45,65,,,,,,,194.30487490000087,194.30487490000087,195.30459990000236,195.30459990000236,1,[0.012703900007181801],[1.012692699994659],37.03703703703704,1.4973604999977397,1.309999788645655e-05,,,VYV,001,2023-04-16_22h07.15.797,trial uncanny,2022.2.5,60.055731720425214,
Humanoid,HSF,Stimuli For Psychopy\Robotic\matched-32-cpi-low-c77.jpeg,matched-32-cpi-low-c77.jpeg,0,46,46,43,,,,,,,198.70260799999232,198.70260799999232,199.70087739999872,199.70087739999872,2,"[0.00035450000723358244, 0.3414561999961734]","[0.09146569999575149, 0.9894885999965481]",44.166666666666664,0.46442400000523776,1.6400008462369442e-05,,,VYV,001,2023-04-16_22h07.15.797,trial uncanny,2022.2.5,60.055731720425214,
Mechanical,HSF,Stimuli For Psychopy\Robotic\matched-32-cpi-low-c33.jpeg,matched-32-cpi-low-c33.jpeg,0,47,47,83,,,,,,,202.3020828000008,202.3020828000008,203.30436239999835,203.30436239999835,2,"[0.0004327000060584396, 0.7915850000135833]","[0.7583828000060748, 0.9916620000003604]",46.666666666666664,1.7978771999914898,1.270000939257443e-05,,,VYV,001,2023-04-16_22h07.15.797,trial uncanny,2022.2.5,60.055731720425214,
Humanoid,LSF,Stimuli For Psychopy\Robotic\matched-8-cpi-low-c74.jpeg,matched-8-cpi-low-c74.jpeg,0,48,48,26,,,,,,,207.0712932000024,207.0712932000024,,,1,[0.32581960000970867],[1.0071025000070222],45.0,0.30034030000388157,1.4399993233382702e-05,,,VYV,001,2023-04-16_22h07.15.797,trial uncanny,2022.2.5,60.055731720425214,
Mechanical,LSF,Stimuli For Psychopy\Robotic\matched-8-cpi-low-c35.jpeg,matched-8-cpi-low-c35.jpeg,0,49,49,69,,,,,,,210.32120939999004,210.32120939999004,211.32094439999491,211.32094439999491,4,"[0.0004830000107176602, 0.11271440000564326, 0.21268930000951514, 0.3789546000043629]","[0.02946930000325665, 0.17907160001050215, 0.36233090001042, 0.9962094000075012]",47.87037037037037,1.0960102999961236,1.3299999409355223e-05,,,VYV,001,2023-04-16_22h07.15.797,trial uncanny,2022.2.5,60.055731720425214,
Humanoid,LSF,Stimuli For Psychopy\Robotic\matched-8-cpi-low-c66.jpeg,matched-8-cpi-low-c66.jpeg,0,50,50,21,,,,,,,214.28780999999435,214.28780999999435,215.28742029999557,215.28742029999557,0,,,56.94444444444444,0.7626902000047266,1.3600001693703234e-05,,,VYV,001,2023-04-16_22h07.15.797,trial uncanny,2022.2.5,60.055731720425214,
Humanoid,BSF,Stimuli For Psychopy\Robotic\matched-c72.jpeg,matched-c72.jpeg,0,51,51,10,,,,,,,218.10218819999136,218.10218819999136,219.1001014999929,219.1001014999929,4,"[0.0005515999946510419, 0.042141199999605305, 0.17520869999134447, 0.35870579999755137]","[0.025621599997975864, 0.058695999992778525, 0.20868469998822547, 0.875280299995211]",48.7962962962963,1.6627594000019599,1.2199991033412516e-05,,,VYV,001,2023-04-16_22h07.15.797,trial uncanny,2022.2.5,60.055731720425214,
Humanoid,HSF,Stimuli For Psychopy\Robotic\matched-32-cpi-low-c76.jpeg,matched-32-cpi-low-c76.jpeg,0,52,52,42,,,,,,,222.82099609999568,222.82099609999568,,,1,[0.005234399999608286],[1.0036232999991626],62.68518518518519,0.5319879000016954,1.410000550094992e-05,,,VYV,001,2023-04-16_22h07.15.797,trial uncanny,2022.2.5,60.055731720425214,
Mechanical,LSF,Stimuli For Psychopy\Robotic\matched-8-cpi-low-c36.jpeg,matched-8-cpi-low-c36.jpeg,0,53,53,70,,,,,,,226.30403210000077,226.30403210000077,227.31841789999453,227.31841789999453,1,[0.00038519999361597],[0.8614884999988135],22.685185185185187,0.44980889999715146,1.4999997802078724e-05,,,VYV,001,2023-04-16_22h07.15.797,trial uncanny,2022.2.5,60.055731720425214,
Mechanical,LSF,Stimuli For Psychopy\Robotic\matched-8-cpi-low-c16.jpeg,matched-8-cpi-low-c16.jpeg,0,54,54,64,,,,,,,229.71926159999566,229.71926159999566,230.72101609999663,230.72101609999663,3,"[0.30730129999574274, 0.37395029999606777, 0.4238871999987168]","[0.35712359999888577, 0.39068690000567585, 0.7906145000015385]",12.407407407407407,0.2642154000059236,1.5700003132224083e-05,,,VYV,001,2023-04-16_22h07.15.797,trial uncanny,2022.2.5,60.055731720425214,
Humanoid,HSF,Stimuli For Psychopy\Robotic\matched-32-cpi-low-c61.jpeg,matched-32-cpi-low-c61.jpeg,0,55,55,32,,,,,,,232.90159719999065,232.90159719999065,233.91841099999147,233.91841099999147,3,"[0.04135719999612775, 0.1415701999940211, 0.32467000000178814]","[0.058544500003336, 0.3083009999973001, 1.0063367999973707]",49.166666666666664,0.33291969999845605,1.2800010154023767e-05,,,VYV,001,2023-04-16_22h07.15.797,trial uncanny,2022.2.5,60.055731720425214,
Humanoid,BSF,Stimuli For Psychopy\Robotic\matched-c76.jpeg,matched-c76.jpeg,0,56,56,12,,,,,,,236.17077009999775,236.17077009999775,237.1833553000033,237.1833553000033,3,"[0.0004315999976824969, 0.0754841000016313, 0.6925072000012733]","[0.04212040000129491, 0.675801399993361, 1.0069592999934684]",64.53703703703704,0.3835228999960236,1.3900003978051245e-05,,,VYV,001,2023-04-16_22h07.15.797,trial uncanny,2022.2.5,60.055731720425214,
Humanoid,BSF,Stimuli For Psychopy\Robotic\matched-c58.jpeg,matched-c58.jpeg,0,57,57,1,,,,,,,239.68464259999746,239.68464259999746,240.68682439999247,240.68682439999247,3,"[0.0004813999985344708, 0.24167540000053123, 0.9251286999933654]","[0.09173279999231454, 0.9086051999911433, 0.9916500999970594]",40.64814814814815,0.7644344000000274,1.3900003978051245e-05,,,VYV,001,2023-04-16_22h07.15.797,trial uncanny,2022.2.5,60.055731720425214,
Humanoid,HSF,Stimuli For Psychopy\Robotic\matched-32-cpi-low-c74.jpeg,matched-32-cpi-low-c74.jpeg,0,58,58,41,,,,,,,243.3353924999974,243.3353924999974,244.33493630000157,244.33493630000157,3,"[0.07453899999381974, 0.15779859999020118, 0.19097729999339208]","[0.14112390000082087, 0.17413859999214765, 0.991459799988661]",55.46296296296296,1.3133738999895286,1.4499993994832039e-05,,,VYV,001,2023-04-16_22h07.15.797,trial uncanny,2022.2.5,60.055731720425214,
Humanoid,BSF,Stimuli For Psychopy\Robotic\matched-c71.jpeg,matched-c71.jpeg,0,59,59,9,,,,,,,247.48464219999732,247.48464219999732,248.4846422999981,248.4846422999981,2,"[0.0004766999918501824, 0.9895520999998553]","[0.8081922999990638, 0.9895550999935949]",52.96296296296297,1.647760299994843,1.4000004739500582e-05,,,VYV,001,2023-04-16_22h07.15.797,trial uncanny,2022.2.5,60.055731720425214,
Mechanical,HSF,Stimuli For Psychopy\Robotic\matched-32-cpi-low-c35.jpeg,matched-32-cpi-low-c35.jpeg,0,60,60,84,,,,,,,252.4204105999961,252.4204105999961,,,2,"[0.2238190000061877, 0.32343450000917073]","[0.2406541000091238, 0.9070683000027202]",13.240740740740742,0.31499739999708254,1.3299999409355223e-05,,,VYV,001,2023-04-16_22h07.15.797,trial uncanny,2022.2.5,60.055731720425214,
Humanoid,LSF,Stimuli For Psychopy\Robotic\matched-8-cpi-low-c65.jpeg,matched-8-cpi-low-c65.jpeg,0,61,61,20,,,,,,,255.7159049000038,255.7159049000038,256.71794629999204,256.71794629999204,1,[0.0003743000124813989],[0.9890587000118103],50.64814814814815,0.5530826000031084,1.4800010831095278e-05,,,VYV,001,2023-04-16_22h07.15.797,trial uncanny,2022.2.5,60.055731720425214,
Mechanical,BSF,Stimuli For Psychopy\Robotic\matched-c37.jpeg,matched-c37.jpeg,0,62,62,56,,,,,,,259.24998959999357,259.24998959999357,260.25303559999156,260.25303559999156,1,[0.00046359999396372586],[0.9928417999908561],9.999999999999998,0.7957433000119636,1.68999977177009e-05,,,VYV,001,2023-04-16_22h07.15.797,trial uncanny,2022.2.5,60.055731720425214,
Mechanical,BSF,Stimuli For Psychopy\Robotic\matched-c41.jpeg,matched-c41.jpeg,0,63,63,58,,,,,,,262.99904629999946,262.99904629999946,263.99964189999446,263.99964189999446,2,"[0.0004305000038584694, 0.8927763999963645]","[0.8428821999987122, 0.9092066000011982]",2.2222222222222197,0.6856723000091733,1.3500000932253897e-05,,,VYV,001,2023-04-16_22h07.15.797,trial uncanny,2022.2.5,60.055731720425214,
Humanoid,LSF,Stimuli For Psychopy\Robotic\matched-8-cpi-low-c76.jpeg,matched-8-cpi-low-c76.jpeg,0,64,64,27,,,,,,,266.88652430000366,266.88652430000366,267.8991892999911,267.8991892999911,1,[0.0003800999984377995],[1.00796810000611],54.81481481481482,0.3488142000132939,1.3299999409355223e-05,,,VYV,001,2023-04-16_22h07.15.797,trial uncanny,2022.2.5,60.055731720425214,
Mechanical,BSF,Stimuli For Psychopy\Robotic\matched-c36.jpeg,matched-c36.jpeg,0,65,65,55,,,,,,,270.21990630000073,270.21990630000073,271.21950439999637,271.21950439999637,1,[0.00036330000148154795],[0.9927473999996437],37.03703703703704,0.3479751999984728,1.6299993149004877e-05,,,VYV,001,2023-04-16_22h07.15.797,trial uncanny,2022.2.5,60.055731720425214,
Mechanical,HSF,Stimuli For Psychopy\Robotic\matched-32-cpi-low-c38.jpeg,matched-32-cpi-low-c38.jpeg,0,66,66,87,,,,,,,273.5500186999998,273.5500186999998,274.5526186999923,274.5526186999923,1,[0.00034839998988900334],[0.8419901999877766],6.296296296296294,0.34650289999262895,1.2500007869675756e-05,,,VYV,001,2023-04-16_22h07.15.797,trial uncanny,2022.2.5,60.055731720425214,
Mechanical,BSF,Stimuli For Psychopy\Robotic\matched-c12.jpeg,matched-c12.jpeg,0,67,67,47,,,,,,,276.8670189999975,276.8670189999975,277.8693504999974,277.8693504999974,1,[0.0005627999926218763],[0.9924391999957152],10.092592592592592,1.0142887999973027,1.2599994079209864e-05,,,VYV,001,2023-04-16_22h07.15.797,trial uncanny,2022.2.5,60.055731720425214,
Humanoid,LSF,Stimuli For Psychopy\Robotic\matched-8-cpi-low-c69.jpeg,matched-8-cpi-low-c69.jpeg,0,68,68,23,,,,,,,280.88319500000216,280.88319500000216,281.8820909999922,281.8820909999922,1,[0.0005376999906729907],[0.992645199992694],39.166666666666664,0.4475832000025548,1.5199999324977398e-05,,,VYV,001,2023-04-16_22h07.15.797,trial uncanny,2022.2.5,60.055731720425214,
Mechanical,HSF,Stimuli For Psychopy\Robotic\matched-32-cpi-low-c14.jpeg,matched-32-cpi-low-c14.jpeg,0,69,69,78,,,,,,,284.2835458999907,284.2835458999907,285.28564479999477,285.28564479999477,2,"[0.00039539999852422625, 0.9918501000065589]","[0.7750953999930061, 0.9918531000002986]",14.074074074074073,0.4460594999982277,1.2800010154023767e-05,,,VYV,001,2023-04-16_22h07.15.797,trial uncanny,2022.2.5,60.055731720425214,
Humanoid,BSF,Stimuli For Psychopy\Robotic\matched-c74.jpeg,matched-c74.jpeg,0,70,70,11,,,,,,,287.6168308999913,287.6168308999913,288.6173533999972,288.6173533999972,1,[0.00039679999463260174],[0.9905273000040324],44.25925925925926,0.31428730000334326,1.2200005585327744e-05,,,VYV,001,2023-04-16_22h07.15.797,trial uncanny,2022.2.5,60.055731720425214,
Mechanical,HSF,Stimuli For Psychopy\Robotic\matched-32-cpi-low-c17.jpeg,matched-32-cpi-low-c17.jpeg,0,71,71,80,,,,,,,290.816714200002,290.816714200002,291.8155523000023,291.8155523000023,1,[0.0005184999899938703],[0.9261436999950092],6.111111111111112,0.4492699999973411,1.2999997125007212e-05,,,VYV,001,2023-04-16_22h07.15.797,trial uncanny,2022.2.5,60.055731720425214,
Humanoid,HSF,Stimuli For Psychopy\Robotic\matched-32-cpi-low-c66.jpeg,matched-32-cpi-low-c66.jpeg,0,72,72,36,,,,,,,294.15040469999076,294.15040469999076,295.1526748999895,295.1526748999895,1,[0.00045900000259280205],[0.9920195000013337],53.888888888888886,2.2666292000067187,1.2400007108226418e-05,,,VYV,001,2023-04-16_22h07.15.797,trial uncanny,2022.2.5,60.055731720425214,
Humanoid,LSF,Stimuli For Psychopy\Robotic\matched-8-cpi-low-c77.jpeg,matched-8-cpi-low-c77.jpeg,0,73,73,28,,,,,,,299.53368619999674,299.53368619999674,,,1,[0.012359900007140823],[0.9975709999998799],45.27777777777778,1.4302107999974396,1.2499993317760527e-05,,,VYV,001,2023-04-16_22h07.15.797,trial uncanny,2022.2.5,60.055731720425214,
Mechanical,HSF,Stimuli For Psychopy\Robotic\matched-32-cpi-low-c27.jpeg,matched-32-cpi-low-c27.jpeg,0,74,74,82,,,,,,,303.9821113999933,303.9821113999933,304.9852594999975,304.9852594999975,1,[0.0006253000028664246],[0.9924623999977484],8.425925925925926,1.7125579999992624,1.2099990271963179e-05,,,VYV,001,2023-04-16_22h07.15.797,trial uncanny,2022.2.5,60.055731720425214,
Humanoid,HSF,Stimuli For Psychopy\Robotic\matched-32-cpi-low-c48.jpeg,matched-32-cpi-low-c48.jpeg,0,75,75,30,,,,,,,308.6856523000024,308.6856523000024,,,1,[0.008865600000717677],[1.005785500005004],25.83333333333333,0.3649505999928806,1.2600008631125093e-05,,,VYV,001,2023-04-16_22h07.15.797,trial uncanny,2022.2.5,60.055731720425214,
Humanoid,BSF,Stimuli For Psychopy\Robotic\matched-c66.jpeg,matched-c66.jpeg,0,76,76,6,,,,,,,312.08170399999653,312.08170399999653,313.0832912999904,313.0832912999904,1,[0.026218200000585057],[0.990446099996916],40.18518518518518,0.4497272000007797,1.3500000932253897e-05,,,VYV,001,2023-04-16_22h07.15.797,trial uncanny,2022.2.5,60.055731720425214,
Humanoid,BSF,Stimuli For Psychopy\Robotic\matched-c79.jpeg,matched-c79.jpeg,0,77,77,14,,,,,,,315.4312351999979,315.4312351999979,316.43157770000107,316.43157770000107,1,[0.0004225000011501834],[0.9908231000008527],56.111111111111114,0.7805679000011878,1.4099990949034691e-05,,,VYV,001,2023-04-16_22h07.15.797,trial uncanny,2022.2.5,60.055731720425214,
Humanoid,HSF,Stimuli For Psychopy\Robotic\matched-32-cpi-low-c79.jpeg,matched-32-cpi-low-c79.jpeg,0,78,78,44,,,,,,,319.11607509999885,319.11607509999885,320.11651219999476,320.11651219999476,1,[0.0003960999893024564],[0.9900596999941627],61.48148148148148,0.36618620000081137,1.1799987987615168e-05,,,VYV,001,2023-04-16_22h07.15.797,trial uncanny,2022.2.5,60.055731720425214,
Mechanical,LSF,Stimuli For Psychopy\Robotic\matched-8-cpi-low-c33.jpeg,matched-8-cpi-low-c33.jpeg,0,79,79,68,,,,,,,322.3687467999989,322.3687467999989,323.3687542999978,323.3687542999978,1,[0.0004236999957356602],[0.8276348999934271],10.925925925925927,0.3637226999999257,1.2499993317760527e-05,,,VYV,001,2023-04-16_22h07.15.797,trial uncanny,2022.2.5,60.055731720425214,
Mechanical,LSF,Stimuli For Psychopy\Robotic\matched-8-cpi-low-c42.jpeg,matched-8-cpi-low-c42.jpeg,0,80,80,74,,,,,,,325.76852399999916,325.76852399999916,326.76849439999205,326.76849439999205,1,[0.00038699999277014285],[0.8283399999927497],15.092592592592592,0.26637660000415053,1.3800003216601908e-05,,,VYV,001,2023-04-16_22h07.15.797,trial uncanny,2022.2.5,60.055731720425214,
Mechanical,HSF,Stimuli For Psychopy\Robotic\matched-32-cpi-low-c37.jpeg,matched-32-cpi-low-c37.jpeg,0,81,81,86,,,,,,,329.91443119999894,329.91443119999894,330.9181746999966,330.9181746999966,1,[0.0004572000034386292],[0.7589625000109663],5.555555555555558,0.38084479999088217,1.3999990187585354e-05,,,VYV,001,2023-04-16_22h07.15.797,trial uncanny,2022.2.5,60.055731720425214,
Humanoid,LSF,Stimuli For Psychopy\Robotic\matched-8-cpi-low-c79.jpeg,matched-8-cpi-low-c79.jpeg,0,82,82,29,,,,,,,333.16845509999257,333.16845509999257,334.16606269999465,334.16606269999465,1,[0.0004008999967481941],[0.9958535999903688],55.925925925925924,0.7307714999915333,1.2300006346777081e-05,,,VYV,001,2023-04-16_22h07.15.797,trial uncanny,2022.2.5,60.055731720425214,
Mechanical,LSF,Stimuli For Psychopy\Robotic\matched-8-cpi-low-c14.jpeg,matched-8-cpi-low-c14.jpeg,0,83,83,63,,,,,,,336.9500696000032,336.9500696000032,337.95135010000376,337.95135010000376,3,"[0.00046189999557100236, 0.842034400004195, 0.9750186000019312]","[0.825099699999555, 0.8582890999969095, 0.9915274999948451]",18.703703703703706,0.28339579999737907,1.2200005585327744e-05,,,VYV,001,2023-04-16_22h07.15.797,trial uncanny,2022.2.5,60.055731720425214,
Mechanical,BSF,Stimuli For Psychopy\Robotic\matched-c27.jpeg,matched-c27.jpeg,0,84,84,52,,,,,,,340.2142393999966,340.2142393999966,341.21783909999067,341.21783909999067,1,[0.0003581999917514622],[0.7425944999995409],9.999999999999998,0.26477480000176,1.2799995602108538e-05,,,VYV,001,2023-04-16_22h07.15.797,trial uncanny,2022.2.5,60.055731720425214,
Mechanical,BSF,Stimuli For Psychopy\Robotic\matched-c33.jpeg,matched-c33.jpeg,0,85,85,53,,,,,,,343.44918809999945,343.44918809999945,344.449294799997,344.449294799997,1,[0.0003969000099459663],[0.9896829000063008],18.148148148148145,0.5494841000036104,1.410000550094992e-05,,,VYV,001,2023-04-16_22h07.15.797,trial uncanny,2022.2.5,60.055731720425214,
Humanoid,BSF,Stimuli For Psychopy\Robotic\matched-c77.jpeg,matched-c77.jpeg,0,86,86,13,,,,,,,346.8978544999991,346.8978544999991,347.89742199999455,347.89742199999455,4,"[0.0004447999963304028, 0.17552550000254996, 0.25891309999860823, 0.2926339999976335]","[0.15888509999786038, 0.24223720000009052, 0.275318599989987, 0.992050200002268]",55.46296296296296,0.34746829999494366,1.3500000932253897e-05,,,VYV,001,2023-04-16_22h07.15.797,trial uncanny,2022.2.5,60.055731720425214,
Mechanical,HSF,Stimuli For Psychopy\Robotic\matched-32-cpi-low-c36.jpeg,matched-32-cpi-low-c36.jpeg,0,87,87,85,,,,,,,350.2138639999903,350.2138639999903,351.2142492999992,351.2142492999992,1,[0.0005267999949865043],[0.9890524000074947],27.685185185185183,0.4677427999995416,1.5099998563528061e-05,,,VYV,001,2023-04-16_22h07.15.797,trial uncanny,2022.2.5,60.055731720425214,
Humanoid,HSF,Stimuli For Psychopy\Robotic\matched-32-cpi-low-c71.jpeg,matched-32-cpi-low-c71.jpeg,0,88,88,39,,,,,,,353.56535910000093,353.56535910000093,,,3,"[0.0004250999918440357, 0.6751239000004716, 0.7884770999953616]","[0.6418714000028558, 0.7749623999989126, 0.9884555999888107]",54.166666666666664,0.5654131000046618,1.340000017080456e-05,,,VYV,001,2023-04-16_22h07.15.797,trial uncanny,2022.2.5,60.055731720425214,
Humanoid,BSF,Stimuli For Psychopy\Robotic\matched-c65.jpeg,matched-c65.jpeg,0,89,89,5,,,,,,,357.1318350999936,357.1318350999936,358.13215740000305,358.13215740000305,1,[0.00040190000436268747],[0.9899632000015117],45.27777777777778,0.28301919999648817,1.200000406242907e-05,,,VYV,001,2023-04-16_22h07.15.797,trial uncanny,2022.2.5,60.055731720425214,
,,,,,,,,,,,,,,,,,,,,,,,,0.01563660000101663,1.017855199999758,,,,,,,
