Type,Spatial_Frequency,filepath,file_name,human_trials.thisRepN,human_trials.thisTrialN,human_trials.thisN,human_trials.thisIndex,instruction.started,key_resp.started,key_resp.keys,key_resp.rt,etRecord.started,etRecord.stopped,Human_image.started,roi.started,Human_image.stopped,roi.stopped,roi.numLooks,roi.timesOn,roi.timesOff,image_2.started,M_H_likeness_slider.response,M_H_likeness_slider.rt,ISI_2.started,etRecord_2.started,etRecord_2.stopped,participant,session,date,expName,psychopyVersion,frameRate,
,,,,,,,,55.167157099815086,55.167157099815086,space,6.0164054001215845,,,,,,,,,,,,,,,,P12,001,2023-04-14_15h28.55.714,Human_uncanny,2022.2.5,60.016804693536,
Human,LSF,Stimuli For Psychopy/Human/matched-8-cpi-low-Rafd090_16_Caucasian_female_neutral_frontal.jpg,matched-8-cpi-low-Rafd090_16_Caucasian_female_neutral_frontal.jpg,0,0,0,2,,,,,1.300009898841381e-05,1.300009898841381e-05,62.210619600024074,62.210619600024074,63.210126999998465,63.210126999998465,1,[0.0006264999974519014],[0.9900969997979701],64.90881779999472,78.42592592592592,1.6819670998957008,1.5799887478351593e-05,,,P12,001,2023-04-14_15h28.55.714,Human_uncanny,2022.2.5,60.016804693536,
Human,BSF,Stimuli For Psychopy/Human/matched-Rafd090_19_Caucasian_female_neutral_frontal.jpg,matched-Rafd090_19_Caucasian_female_neutral_frontal.jpg,0,1,1,34,,,,,,,66.7252571999561,66.7252571999561,67.72552019986324,67.72552019986324,1,[0.0003869000356644392],[0.9952790001407266],68.21082089981064,75.0,0.46326850005425513,1.3599870726466179e-05,,,P12,001,2023-04-14_15h28.55.714,Human_uncanny,2022.2.5,60.016804693536,
Human,BSF,Stimuli For Psychopy/Human/matched-Rafd090_24_Caucasian_male_neutral_frontal.jpg,matched-Rafd090_24_Caucasian_male_neutral_frontal.jpg,0,2,2,36,,,,,,,69.97532949992456,69.97532949992456,70.97544680000283,70.97544680000283,1,[0.00039519998244941235],[0.9925951000768691],71.57543689990416,91.2962962962963,0.5828944998793304,1.659989356994629e-05,,,P12,001,2023-04-14_15h28.55.714,Human_uncanny,2022.2.5,60.016804693536,
Human,BSF,Stimuli For Psychopy/Human/matched-Rafd090_30_Caucasian_male_neutral_frontal.jpg,matched-Rafd090_30_Caucasian_male_neutral_frontal.jpg,0,3,3,39,,,,,,,73.3587270998396,73.3587270998396,74.36076990002766,74.36076990002766,1,[0.0004773999098688364],[0.9936410998925567],74.77744859992526,87.03703703703704,0.39688809984363616,1.910002902150154e-05,,,P12,001,2023-04-14_15h28.55.714,Human_uncanny,2022.2.5,60.016804693536,
Human,LSF,Stimuli For Psychopy/Human/matched-8-cpi-low-Rafd090_32_Caucasian_female_neutral_frontal.jpg,matched-8-cpi-low-Rafd090_32_Caucasian_female_neutral_frontal.jpg,0,4,4,11,,,,,,,76.55891769984737,76.55891769984737,77.55873109982349,77.55873109982349,1,[0.0004475000314414501],[0.9939895998686552],78.22523749992251,82.96296296296296,0.6512753001879901,1.3499986380338669e-05,,,P12,001,2023-04-14_15h28.55.714,Human_uncanny,2022.2.5,60.016804693536,
Human,LSF,Stimuli For Psychopy/Human/matched-8-cpi-low-Rafd090_18_Caucasian_female_neutral_frontal.jpg,matched-8-cpi-low-Rafd090_18_Caucasian_female_neutral_frontal.jpg,0,5,5,3,,,,,,,80.07519109989516,80.07519109989516,81.07492619985715,81.07492619985715,1,[0.008911700220778584],[1.0087776000145823],81.52500519994646,84.62962962962963,0.4321540000382811,1.3299984857439995e-05,,,P12,001,2023-04-14_15h28.55.714,Human_uncanny,2022.2.5,60.016804693536,
Human,LSF,Stimuli For Psychopy/Human/matched-8-cpi-low-Rafd090_28_Caucasian_male_neutral_frontal.jpg,matched-8-cpi-low-Rafd090_28_Caucasian_male_neutral_frontal.jpg,0,6,6,8,,,,,,,83.84385890001431,83.84385890001431,84.8437941998709,84.8437941998709,1,[0.007955200038850307],[1.0097568000201136],85.44151299982332,77.22222222222221,0.5814980000723153,1.5399884432554245e-05,,,P12,001,2023-04-14_15h28.55.714,Human_uncanny,2022.2.5,60.016804693536,
Human,HSF,Stimuli For Psychopy/Human/matched-32-cpi-low-Rafd090_24_Caucasian_male_neutral_frontal.jpg,matched-32-cpi-low-Rafd090_24_Caucasian_male_neutral_frontal.jpg,0,7,7,21,,,,,,,87.27733149984851,87.27733149984851,,,1,[0.009931899840012193],[0.995397699996829],88.65823980001733,89.35185185185186,1.2659469998907298,1.4800112694501877e-05,,,P12,001,2023-04-14_15h28.55.714,Human_uncanny,2022.2.5,60.016804693536,
Human,LSF,Stimuli For Psychopy/Human/matched-8-cpi-low-Rafd090_36_Caucasian_male_neutral_frontal.jpg,matched-8-cpi-low-Rafd090_36_Caucasian_male_neutral_frontal.jpg,0,8,8,13,,,,,,,91.34375589992851,91.34375589992851,92.34187170001678,92.34187170001678,1,[0.00041779992170631886],[0.9939166998956352],92.92452909983695,100,0.5642693999689072,1.3499986380338669e-05,,,P12,001,2023-04-14_15h28.55.714,Human_uncanny,2022.2.5,60.016804693536,
Human,BSF,Stimuli For Psychopy/Human/matched-Rafd090_18_Caucasian_female_neutral_frontal.jpg,matched-Rafd090_18_Caucasian_female_neutral_frontal.jpg,0,9,9,33,,,,,,,94.95787789998576,94.95787789998576,,,2,"[0.009490800090134144, 0.8288728999905288]","[0.745048200013116, 0.995433900039643]",96.41386449988931,93.33333333333333,0.4368338999338448,1.4199875295162201e-05,,,P12,001,2023-04-14_15h28.55.714,Human_uncanny,2022.2.5,60.016804693536,
Human,BSF,Stimuli For Psychopy/Human/matched-Rafd090_16_Caucasian_female_neutral_frontal.jpg,matched-Rafd090_16_Caucasian_female_neutral_frontal.jpg,0,10,10,32,,,,,,,98.7436228999868,98.7436228999868,,,1,[0.00929860002361238],[1.0071143000386655],100.29126149998046,95.46296296296296,0.5145839999895543,1.3899989426136017e-05,,,P12,001,2023-04-14_15h28.55.714,Human_uncanny,2022.2.5,60.016804693536,
Human,HSF,Stimuli For Psychopy/Human/matched-32-cpi-low-Rafd090_26_Caucasian_female_neutral_frontal.jpg,matched-32-cpi-low-Rafd090_26_Caucasian_female_neutral_frontal.jpg,0,11,11,22,,,,,,,102.19107569986954,102.19107569986954,103.19097829982638,103.19097829982638,3,"[0.00042179995216429234, 0.72530009993352, 0.942166900029406]","[0.692314499989152, 0.8419880999717861, 0.9919501000549644]",103.92695469991304,92.5925925925926,0.7187051000073552,1.3999873772263527e-05,,,P12,001,2023-04-14_15h28.55.714,Human_uncanny,2022.2.5,60.016804693536,
Human,LSF,Stimuli For Psychopy/Human/matched-8-cpi-low-Rafd090_24_Caucasian_male_neutral_frontal.jpg,matched-8-cpi-low-Rafd090_24_Caucasian_male_neutral_frontal.jpg,0,12,12,6,,,,,,,105.77458469988778,105.77458469988778,106.77730299998075,106.77730299998075,2,"[0.00040559982880949974, 0.8902121998835355]","[0.6404510999564081, 0.9407744000200182]",107.22659079986624,87.77777777777777,0.43512929999269545,1.3299984857439995e-05,,,P12,001,2023-04-14_15h28.55.714,Human_uncanny,2022.2.5,60.016804693536,
Human,LSF,Stimuli For Psychopy/Human/matched-8-cpi-low-Rafd090_30_Caucasian_male_neutral_frontal.jpg,matched-8-cpi-low-Rafd090_30_Caucasian_male_neutral_frontal.jpg,0,13,13,9,,,,,,,109.07449699984863,109.07449699984863,110.07460469985381,110.07460469985381,1,[0.000583800021559],[0.9889956000261009],111.2134201999288,87.96296296296296,1.1162958999630064,1.9099796190857887e-05,,,P12,001,2023-04-14_15h28.55.714,Human_uncanny,2022.2.5,60.016804693536,
Human,HSF,Stimuli For Psychopy/Human/matched-32-cpi-low-Rafd090_37_Caucasian_female_neutral_frontal.jpg,matched-32-cpi-low-Rafd090_37_Caucasian_female_neutral_frontal.jpg,0,14,14,29,,,,,,,113.05774479988031,113.05774479988031,114.06013219989836,114.06013219989836,1,[0.0005048001185059547],[0.9922233000397682],114.61286260001361,76.94444444444444,0.5357846000697464,2.0399922505021095e-05,,,P12,001,2023-04-14_15h28.55.714,Human_uncanny,2022.2.5,60.016804693536,
Human,BSF,Stimuli For Psychopy/Human/matched-Rafd090_28_Caucasian_male_neutral_frontal.jpg,matched-Rafd090_28_Caucasian_male_neutral_frontal.jpg,0,15,15,38,,,,,,,116.51279779989272,116.51279779989272,,,1,[0.005805799970403314],[1.005776199977845],118.15976539999247,93.14814814814815,0.6137827001512051,1.3200100511312485e-05,,,P12,001,2023-04-14_15h28.55.714,Human_uncanny,2022.2.5,60.016804693536,
Human,HSF,Stimuli For Psychopy/Human/matched-32-cpi-low-Rafd090_32_Caucasian_female_neutral_frontal.jpg,matched-32-cpi-low-Rafd090_32_Caucasian_female_neutral_frontal.jpg,0,16,16,26,,,,,,,119.95754209998995,119.95754209998995,120.95723229995929,120.95723229995929,1,[0.0004841999616473913],[0.9927550998982042],121.62396229989827,93.88888888888889,0.6503003998659551,1.4699995517730713e-05,,,P12,001,2023-04-14_15h28.55.714,Human_uncanny,2022.2.5,60.016804693536,
Human,HSF,Stimuli For Psychopy/Human/matched-32-cpi-low-Rafd090_18_Caucasian_female_neutral_frontal.jpg,matched-32-cpi-low-Rafd090_18_Caucasian_female_neutral_frontal.jpg,0,17,17,18,,,,,,,123.4741469998844,123.4741469998844,124.47655979986303,124.47655979986303,1,[0.0004124999977648258],[0.9925553998909891],125.19308270001784,88.14814814814815,0.6995788998901844,1.54001172631979e-05,,,P12,001,2023-04-14_15h28.55.714,Human_uncanny,2022.2.5,60.016804693536,
Human,HSF,Stimuli For Psychopy/Human/matched-32-cpi-low-Rafd090_16_Caucasian_female_neutral_frontal.jpg,matched-32-cpi-low-Rafd090_16_Caucasian_female_neutral_frontal.jpg,0,18,18,17,,,,,,,127.05747719993815,127.05747719993815,128.0574384999927,128.0574384999927,1,[0.0005701000336557627],[0.9917621999047697],128.7262100998778,89.53703703703704,0.6487408000975847,1.8700025975704193e-05,,,P12,001,2023-04-14_15h28.55.714,Human_uncanny,2022.2.5,60.016804693536,
Human,LSF,Stimuli For Psychopy/Human/matched-8-cpi-low-Rafd090_01_Caucasian_female_neutral_frontal.jpg,matched-8-cpi-low-Rafd090_01_Caucasian_female_neutral_frontal.jpg,0,19,19,0,,,,,,,130.55945919989608,130.55945919989608,131.5741720998194,131.5741720998194,1,[0.0009580000769346952],[1.0109162998851389],132.17629379988648,91.11111111111111,0.584678899962455,1.5900004655122757e-05,,,P12,001,2023-04-14_15h28.55.714,Human_uncanny,2022.2.5,60.016804693536,
Human,HSF,Stimuli For Psychopy/Human/matched-32-cpi-low-Rafd090_12_Caucasian_female_neutral_frontal.jpg,matched-32-cpi-low-Rafd090_12_Caucasian_female_neutral_frontal.jpg,0,20,20,16,,,,,,,134.20724819996394,134.20724819996394,135.2093863999471,135.2093863999471,1,[0.0003796000964939594],[0.9953825999982655],135.8427690998651,90.0,0.6140357998665422,1.2899981811642647e-05,,,P12,001,2023-04-14_15h28.55.714,Human_uncanny,2022.2.5,60.016804693536,
Human,HSF,Stimuli For Psychopy/Human/matched-32-cpi-low-Rafd090_28_Caucasian_male_neutral_frontal.jpg,matched-32-cpi-low-Rafd090_28_Caucasian_male_neutral_frontal.jpg,0,21,21,23,,,,,,,137.70726129994728,137.70726129994728,138.70727839996107,138.70727839996107,1,[0.0003339999821037054],[0.992698400048539],139.40708189993165,90.92592592592592,0.6828307001851499,1.5100231394171715e-05,,,P12,001,2023-04-14_15h28.55.714,Human_uncanny,2022.2.5,60.016804693536,
Human,HSF,Stimuli For Psychopy/Human/matched-32-cpi-low-Rafd090_30_Caucasian_male_neutral_frontal.jpg,matched-32-cpi-low-Rafd090_30_Caucasian_male_neutral_frontal.jpg,0,22,22,24,,,,,,,141.29280639998615,141.29280639998615,,,1,[0.007572300033643842],[1.0078618000261486],142.859111599857,88.42592592592592,0.5312244000378996,1.659989356994629e-05,,,P12,001,2023-04-14_15h28.55.714,Human_uncanny,2022.2.5,60.016804693536,
Human,HSF,Stimuli For Psychopy/Human/matched-32-cpi-low-Rafd090_33_Caucasian_male_neutral_frontal.jpg,matched-32-cpi-low-Rafd090_33_Caucasian_male_neutral_frontal.jpg,0,23,23,27,,,,,,,144.69246509997174,144.69246509997174,145.69026719988324,145.69026719988324,1,[0.000376800075173378],[0.9938125999178737],146.24268149980344,90.0925925925926,0.5324355000630021,1.700012944638729e-05,,,P12,001,2023-04-14_15h28.55.714,Human_uncanny,2022.2.5,60.016804693536,
Human,BSF,Stimuli For Psychopy/Human/matched-Rafd090_22_Caucasian_female_neutral_frontal.jpg,matched-Rafd090_22_Caucasian_female_neutral_frontal.jpg,0,24,24,35,,,,,,,148.25696499994956,148.25696499994956,149.25916629983112,149.25916629983112,1,[0.0006004997994750738],[0.9919906000141054],149.7402260999661,92.31481481481481,0.46511860005557537,1.659989356994629e-05,,,P12,001,2023-04-14_15h28.55.714,Human_uncanny,2022.2.5,60.016804693536,
Human,BSF,Stimuli For Psychopy/Human/matched-Rafd090_33_Caucasian_male_neutral_frontal.jpg,matched-Rafd090_33_Caucasian_male_neutral_frontal.jpg,0,25,25,42,,,,,,,151.52340059983544,151.52340059983544,152.52334009995684,152.52334009995684,1,[0.00040069990791380405],[0.9935099999420345],153.07354429992847,93.42592592592592,0.5359057001769543,1.4099990949034691e-05,,,P12,001,2023-04-14_15h28.55.714,Human_uncanny,2022.2.5,60.016804693536,
Human,HSF,Stimuli For Psychopy/Human/matched-32-cpi-low-Rafd090_36_Caucasian_male_neutral_frontal.jpg,matched-32-cpi-low-Rafd090_36_Caucasian_male_neutral_frontal.jpg,0,26,26,28,,,,,,,154.80903419991955,154.80903419991955,155.80896229995415,155.80896229995415,1,[0.0003939999733120203],[0.9931377999018878],156.4286266998388,92.12962962962963,0.5972313000820577,1.4799879863858223e-05,,,P12,001,2023-04-14_15h28.55.714,Human_uncanny,2022.2.5,60.016804693536,
Human,BSF,Stimuli For Psychopy/Human/matched-Rafd090_32_Caucasian_female_neutral_frontal.jpg,matched-Rafd090_32_Caucasian_female_neutral_frontal.jpg,0,27,27,41,,,,,,,158.27582290000282,158.27582290000282,,,1,[0.009756300132721663],[1.0107142999768257],160.02554189995863,93.9814814814815,0.7149366000667214,1.600012183189392e-05,,,P12,001,2023-04-14_15h28.55.714,Human_uncanny,2022.2.5,60.016804693536,
Human,BSF,Stimuli For Psychopy/Human/matched-Rafd090_37_Caucasian_female_neutral_frontal.jpg,matched-Rafd090_37_Caucasian_female_neutral_frontal.jpg,0,28,28,44,,,,,,,161.82325709983706,161.82325709983706,162.82324990001507,162.82324990001507,1,[0.0004854998551309109],[0.9939602999947965],163.5589258999098,93.05555555555556,0.7188456999137998,1.4099990949034691e-05,,,P12,001,2023-04-14_15h28.55.714,Human_uncanny,2022.2.5,60.016804693536,
Human,LSF,Stimuli For Psychopy/Human/matched-8-cpi-low-Rafd090_37_Caucasian_female_neutral_frontal.jpg,matched-8-cpi-low-Rafd090_37_Caucasian_female_neutral_frontal.jpg,0,29,29,14,,,,,,,165.35666259983554,165.35666259983554,166.35895649995655,166.35895649995655,1,[0.0004688999615609646],[0.9966458999551833],166.8734430000186,84.72222222222221,0.4995129001326859,1.309998333454132e-05,,,P12,001,2023-04-14_15h28.55.714,Human_uncanny,2022.2.5,60.016804693536,
Human,BSF,Stimuli For Psychopy/Human/matched-Rafd090_36_Caucasian_male_neutral_frontal.jpg,matched-Rafd090_36_Caucasian_male_neutral_frontal.jpg,0,30,30,43,,,,,,,168.6919701998122,168.6919701998122,,,1,[0.008900499902665615],[1.0090337998699397],170.25853549991734,92.77777777777779,0.535074699902907,1.700012944638729e-05,,,P12,001,2023-04-14_15h28.55.714,Human_uncanny,2022.2.5,60.016804693536,
Human,HSF,Stimuli For Psychopy/Human/matched-32-cpi-low-Rafd090_31_Caucasian_female_neutral_frontal.jpg,matched-32-cpi-low-Rafd090_31_Caucasian_female_neutral_frontal.jpg,0,31,31,25,,,,,,,171.98997449991293,171.98997449991293,172.99198709987104,172.99198709987104,1,[0.00048450008034706116],[0.9908954999409616],173.70631529996172,92.12962962962963,0.6990958000533283,1.300009898841381e-05,,,P12,001,2023-04-14_15h28.55.714,Human_uncanny,2022.2.5,60.016804693536,
Human,BSF,Stimuli For Psychopy/Human/matched-Rafd090_26_Caucasian_female_neutral_frontal.jpg,matched-Rafd090_26_Caucasian_female_neutral_frontal.jpg,0,32,32,37,,,,,,,175.50612019980326,175.50612019980326,176.50616299989633,176.50616299989633,2,"[0.000503400107845664, 0.7258355000521988]","[0.609504499938339, 0.9924894000869244]",177.19187059998512,88.24074074074075,0.6690322000067681,1.6700010746717453e-05,,,P12,001,2023-04-14_15h28.55.714,Human_uncanny,2022.2.5,60.016804693536,
Human,HSF,Stimuli For Psychopy/Human/matched-32-cpi-low-Rafd090_22_Caucasian_female_neutral_frontal.jpg,matched-32-cpi-low-Rafd090_22_Caucasian_female_neutral_frontal.jpg,0,33,33,20,,,,,,,179.32288639992476,179.32288639992476,180.32288869982585,180.32288869982585,1,[0.00042779999785125256],[0.9933849999215454],180.94189289980568,89.07407407407408,0.5981203999835998,1.4099990949034691e-05,,,P12,001,2023-04-14_15h28.55.714,Human_uncanny,2022.2.5,60.016804693536,
Human,HSF,Stimuli For Psychopy/Human/matched-32-cpi-low-Rafd090_19_Caucasian_female_neutral_frontal.jpg,matched-32-cpi-low-Rafd090_19_Caucasian_female_neutral_frontal.jpg,0,34,34,19,,,,,,,183.2084174999036,183.2084174999036,,,1,[0.007971500046551228],[1.007517500082031],184.75590320001356,89.07407407407408,0.5166619999799877,1.4699995517730713e-05,,,P12,001,2023-04-14_15h28.55.714,Human_uncanny,2022.2.5,60.016804693536,
Human,LSF,Stimuli For Psychopy/Human/matched-8-cpi-low-Rafd090_22_Caucasian_female_neutral_frontal.jpg,matched-8-cpi-low-Rafd090_22_Caucasian_female_neutral_frontal.jpg,0,35,35,5,,,,,,,186.5249892999418,186.5249892999418,,,1,[0.012390200048685074],[0.9976196999195963],188.23966540000401,89.25925925925927,0.6998628000728786,1.4699995517730713e-05,,,P12,001,2023-04-14_15h28.55.714,Human_uncanny,2022.2.5,60.016804693536,
Human,LSF,Stimuli For Psychopy/Human/matched-8-cpi-low-Rafd090_31_Caucasian_female_neutral_frontal.jpg,matched-8-cpi-low-Rafd090_31_Caucasian_female_neutral_frontal.jpg,0,36,36,10,,,,,,,190.03946110000834,190.03946110000834,191.0393053998705,191.0393053998705,2,"[0.0005626999773085117, 0.8590758999343961]","[0.7754508999641985, 0.9926006000023335]",191.80819180002436,93.70370370370371,0.7477259000297636,1.8399907276034355e-05,,,P12,001,2023-04-14_15h28.55.714,Human_uncanny,2022.2.5,60.016804693536,
Human,LSF,Stimuli For Psychopy/Human/matched-8-cpi-low-Rafd090_12_Caucasian_female_neutral_frontal.jpg,matched-8-cpi-low-Rafd090_12_Caucasian_female_neutral_frontal.jpg,0,37,37,1,,,,,,,193.63891749992035,193.63891749992035,194.6389972998295,194.6389972998295,1,[0.0004314000252634287],[0.9929167001973838],195.12485029990785,86.57407407407408,0.46855379990302026,1.5900004655122757e-05,,,P12,001,2023-04-14_15h28.55.714,Human_uncanny,2022.2.5,60.016804693536,
Human,BSF,Stimuli For Psychopy/Human/matched-Rafd090_01_Caucasian_female_neutral_frontal.jpg,matched-Rafd090_01_Caucasian_female_neutral_frontal.jpg,0,38,38,30,,,,,,,196.90647279983386,196.90647279983386,,,1,[0.01181890000589192],[0.7293648000340909],198.53923329990357,90.64814814814814,0.6150607999879867,1.3599870726466179e-05,,,P12,001,2023-04-14_15h28.55.714,Human_uncanny,2022.2.5,60.016804693536,
Human,BSF,Stimuli For Psychopy/Human/matched-Rafd090_12_Caucasian_female_neutral_frontal.jpg,matched-Rafd090_12_Caucasian_female_neutral_frontal.jpg,0,39,39,31,,,,,,,200.37244830001146,200.37244830001146,201.37253729999065,201.37253729999065,2,"[0.00044350000098347664, 0.5431264999788254]","[0.5096460999920964, 0.9928596999961883]",202.1416766999755,82.31481481481482,0.7498575998470187,1.4200108125805855e-05,,,P12,001,2023-04-14_15h28.55.714,Human_uncanny,2022.2.5,60.016804693536,
Human,LSF,Stimuli For Psychopy/Human/matched-8-cpi-low-Rafd090_26_Caucasian_female_neutral_frontal.jpg,matched-8-cpi-low-Rafd090_26_Caucasian_female_neutral_frontal.jpg,0,40,40,7,,,,,,,203.97451149998233,203.97451149998233,,,1,[0.00958610000088811],[1.0093892000149935],205.53908569994383,90.74074074074075,0.5354250001255423,1.3999873772263527e-05,,,P12,001,2023-04-14_15h28.55.714,Human_uncanny,2022.2.5,60.016804693536,
Human,BSF,Stimuli For Psychopy/Human/matched-Rafd090_31_Caucasian_female_neutral_frontal.jpg,matched-Rafd090_31_Caucasian_female_neutral_frontal.jpg,0,41,41,40,,,,,,,207.34110409999266,207.34110409999266,,,1,[0.008977700024843216],[0.9940243999008089],208.85795450001024,89.81481481481481,0.5006822999566793,1.500011421740055e-05,,,P12,001,2023-04-14_15h28.55.714,Human_uncanny,2022.2.5,60.016804693536,
Human,LSF,Stimuli For Psychopy/Human/matched-8-cpi-low-Rafd090_33_Caucasian_male_neutral_frontal.jpg,matched-8-cpi-low-Rafd090_33_Caucasian_male_neutral_frontal.jpg,0,42,42,12,,,,,,,210.75783789996058,210.75783789996058,211.75582229997963,211.75582229997963,1,[0.009305699961259961],[1.0109208999201655],212.27437400002964,91.2037037037037,0.49976819986477494,1.6200123354792595e-05,,,P12,001,2023-04-14_15h28.55.714,Human_uncanny,2022.2.5,60.016804693536,
Human,HSF,Stimuli For Psychopy/Human/matched-32-cpi-low-Rafd090_01_Caucasian_female_neutral_frontal.jpg,matched-32-cpi-low-Rafd090_01_Caucasian_female_neutral_frontal.jpg,0,43,43,15,,,,,,,214.60757719981484,214.60757719981484,215.60557639994659,215.60557639994659,1,[0.0004150001332163811],[0.9928659000433981],216.30587719986215,89.81481481481481,0.6800907000433654,1.5200115740299225e-05,,,P12,001,2023-04-14_15h28.55.714,Human_uncanny,2022.2.5,60.016804693536,
Human,LSF,Stimuli For Psychopy/Human/matched-8-cpi-low-Rafd090_19_Caucasian_female_neutral_frontal.jpg,matched-8-cpi-low-Rafd090_19_Caucasian_female_neutral_frontal.jpg,0,44,44,4,,,,,,,218.24088229984045,218.24088229984045,219.23864299990237,219.23864299990237,2,"[0.006687400164082646, 0.7752954000607133]","[0.692100299987942, 1.0087957000359893]",219.77433779998682,84.35185185185186,0.5148980999365449,1.3799872249364853e-05,,,P12,001,2023-04-14_15h28.55.714,Human_uncanny,2022.2.5,60.016804693536,
,,,,,,,,,,,,,,,,,,,,,,,,,0.01526469993405044,1.0138365998864174,,,,,,,
