Type,Spatial_Frequency,filepath,file_name,robotic_trials.thisRepN,robotic_trials.thisTrialN,robotic_trials.thisN,robotic_trials.thisIndex,instruction.started,key_resp.started,key_resp.keys,key_resp.rt,etRecord.started,etRecord.stopped,Robotic__Stimuli.started,roi.started,roi.numLooks,roi.timesOn,roi.timesOff,Likebility_slider_3.response,Likebility_slider_3.rt,ISI_2.started,Robotic__Stimuli.stopped,roi.stopped,etRecord_2.started,etRecord_2.stopped,participant,session,date,expName,psychopyVersion,frameRate,
,,,,,,,,63.64707490010187,63.64707490010187,space,4.81161869969219,,,,,,,,,,,,,,,P13,001,2023-04-14_15h40.30.713,trial uncanny,2022.2.5,59.25016544406894,
Mechanical,BSF,Stimuli For Psychopy\Robotic\matched-c42.jpeg,matched-c42.jpeg,0,0,0,59,,,,,1.4299992471933365e-05,1.4299992471933365e-05,69.47687670006417,69.47687670006417,1,[0.0006218000780791044],[0.9864656000863761],21.1111111111111,0.849154100054875,1.3800105080008507e-05,,,,,P13,001,2023-04-14_15h40.30.713,trial uncanny,2022.2.5,59.25016544406894,
Mechanical,HSF,Stimuli For Psychopy\Robotic\matched-32-cpi-low-c43.jpeg,matched-32-cpi-low-c43.jpeg,0,1,1,81,,,,,,,73.50885100010782,73.50885100010782,1,[0.011245799949392676],[1.0106848999857903],39.44444444444443,0.6826519002206624,1.659989356994629e-05,74.50890550017357,74.50890550017357,,,P13,001,2023-04-14_15h40.30.713,trial uncanny,2022.2.5,59.25016544406894,
Mechanical,BSF,Stimuli For Psychopy\Robotic\matched-c12.jpeg,matched-c12.jpeg,0,2,2,47,,,,,,,77.1920417000074,77.1920417000074,1,[0.009093299973756075],[0.9978269999846816],38.33333333333334,0.9445668000262231,1.3800105080008507e-05,,,,,P13,001,2023-04-14_15h40.30.713,trial uncanny,2022.2.5,59.25016544406894,
Mechanical,LSF,Stimuli For Psychopy\Robotic\matched-8-cpi-low-c36.jpeg,matched-8-cpi-low-c36.jpeg,0,3,3,70,,,,,,,80.94210750004277,80.94210750004277,1,[0.01247929991222918],[0.9951752000488341],25.0,0.6005021000746638,1.219986006617546e-05,,,,,P13,001,2023-04-14_15h40.30.713,trial uncanny,2022.2.5,59.25016544406894,
Mechanical,BSF,Stimuli For Psychopy\Robotic\matched-c27.jpeg,matched-c27.jpeg,0,4,4,52,,,,,,,84.42543910001405,84.42543910001405,2,"[0.00043109990656375885, 0.10802330006845295]","[0.059609899995848536, 0.9762715001124889]",26.111111111111114,0.5669468000996858,1.71000137925148e-05,,,,,P13,001,2023-04-14_15h40.30.713,trial uncanny,2022.2.5,59.25016544406894,
Humanoid,LSF,Stimuli For Psychopy\Robotic\matched-8-cpi-low-c71.jpeg,matched-8-cpi-low-c71.jpeg,0,5,5,24,,,,,,,87.82300100009888,87.82300100009888,1,[0.00044430000707507133],[0.9900789000093937],32.96296296296296,0.500234300037846,1.4499993994832039e-05,88.82299180002883,88.82299180002883,,,P13,001,2023-04-14_15h40.30.713,trial uncanny,2022.2.5,59.25016544406894,
Mechanical,HSF,Stimuli For Psychopy\Robotic\matched-32-cpi-low-c41.jpeg,matched-32-cpi-low-c41.jpeg,0,6,6,88,,,,,,,91.18927190010436,91.18927190010436,1,[0.008877200074493885],[1.0087870000861585],24.814814814814824,0.6326275002211332,1.910002902150154e-05,92.18930139997974,92.18930139997974,,,P13,001,2023-04-14_15h40.30.713,trial uncanny,2022.2.5,59.25016544406894,
Humanoid,LSF,Stimuli For Psychopy\Robotic\matched-8-cpi-low-c79.jpeg,matched-8-cpi-low-c79.jpeg,0,7,7,29,,,,,,,94.70604770001955,94.70604770001955,1,[0.00047559989616274834],[0.9754782998934388],-10.0,0.6003520998638123,1.850002445280552e-05,,,,,P13,001,2023-04-14_15h40.30.713,trial uncanny,2022.2.5,59.25016544406894,
Mechanical,HSF,Stimuli For Psychopy\Robotic\matched-32-cpi-low-c17.jpeg,matched-32-cpi-low-c17.jpeg,0,8,8,80,,,,,,,98.13914230000228,98.13914230000228,1,[0.008419000077992678],[1.0080661999527365],-13.888888888888886,0.36550879990682006,1.7300015315413475e-05,99.13908190000802,99.13908190000802,,,P13,001,2023-04-14_15h40.30.713,trial uncanny,2022.2.5,59.25016544406894,
Humanoid,BSF,Stimuli For Psychopy\Robotic\matched-c66.jpeg,matched-c66.jpeg,0,9,9,6,,,,,,,101.32500510010868,101.32500510010868,1,[0.0006540999747812748],[0.9925244001206011],-6.666666666666671,0.5022738000843674,1.4600111171603203e-05,102.32265490014106,102.32265490014106,,,P13,001,2023-04-14_15h40.30.713,trial uncanny,2022.2.5,59.25016544406894,
Humanoid,LSF,Stimuli For Psychopy\Robotic\matched-8-cpi-low-c61.jpeg,matched-8-cpi-low-c61.jpeg,0,10,10,17,,,,,,,104.67254280019552,104.67254280019552,1,[0.007517999969422817],[1.0097378001082689],-8.333333333333343,0.636026700027287,1.3299984857439995e-05,105.67506160004996,105.67506160004996,,,P13,001,2023-04-14_15h40.30.713,trial uncanny,2022.2.5,59.25016544406894,
Humanoid,BSF,Stimuli For Psychopy\Robotic\matched-c67.jpeg,matched-c67.jpeg,0,11,11,7,,,,,,,108.13931010011584,108.13931010011584,1,[0.0004135998897254467],[0.9898411999456584],-45.18518518518518,0.382774299941957,1.550000160932541e-05,109.13894319999963,109.13894319999963,,,P13,001,2023-04-14_15h40.30.713,trial uncanny,2022.2.5,59.25016544406894,
Humanoid,BSF,Stimuli For Psychopy\Robotic\matched-c71.jpeg,matched-c71.jpeg,0,12,12,9,,,,,,,111.37470640009269,111.37470640009269,1,[0.0004453000146895647],[1.0074978999327868],29.814814814814838,0.4151871001813561,1.6900012269616127e-05,112.38909120019525,112.38909120019525,,,P13,001,2023-04-14_15h40.30.713,trial uncanny,2022.2.5,59.25016544406894,
Mechanical,BSF,Stimuli For Psychopy\Robotic\matched-c16.jpeg,matched-c16.jpeg,0,13,13,49,,,,,,,115.07449460006319,115.07449460006319,1,[0.011883300030604005],[1.009345900034532],-27.777777777777786,0.48355109989643097,1.5200115740299225e-05,,,,,P13,001,2023-04-14_15h40.30.713,trial uncanny,2022.2.5,59.25016544406894,
Humanoid,LSF,Stimuli For Psychopy\Robotic\matched-8-cpi-low-c65.jpeg,matched-8-cpi-low-c65.jpeg,0,14,14,20,,,,,,,118.47237200010568,118.47237200010568,1,[0.008685600012540817],[0.9942351998761296],-19.629629629629633,0.7668266999535263,1.309998333454132e-05,,,,,P13,001,2023-04-14_15h40.30.713,trial uncanny,2022.2.5,59.25016544406894,
Humanoid,HSF,Stimuli For Psychopy\Robotic\matched-32-cpi-low-c79.jpeg,matched-32-cpi-low-c79.jpeg,0,15,15,44,,,,,,,122.09095420013182,122.09095420013182,1,[0.0003929000813513994],[0.9918747001793236],8.518518518518519,0.8638979999814183,1.4099990949034691e-05,123.09105210006237,123.09105210006237,,,P13,001,2023-04-14_15h40.30.713,trial uncanny,2022.2.5,59.25016544406894,
Mechanical,BSF,Stimuli For Psychopy\Robotic\matched-c41.jpeg,matched-c41.jpeg,0,16,16,58,,,,,,,125.87229650001973,125.87229650001973,1,[0.011290299938991666],[0.9974722000770271],9.074074074074076,1.2784845000132918,1.2600095942616463e-05,,,,,P13,001,2023-04-14_15h40.30.713,trial uncanny,2022.2.5,59.25016544406894,
Humanoid,BSF,Stimuli For Psychopy\Robotic\matched-c48.jpeg,matched-c48.jpeg,0,17,17,0,,,,,,,130.0407476001419,130.0407476001419,1,[0.00041479989886283875],[0.9900597999803722],-58.333333333333336,0.6523869000375271,1.3199867680668831e-05,,,,,P13,001,2023-04-14_15h40.30.713,trial uncanny,2022.2.5,59.25016544406894,
Mechanical,LSF,Stimuli For Psychopy\Robotic\matched-8-cpi-low-c16.jpeg,matched-8-cpi-low-c16.jpeg,0,18,18,64,,,,,,,133.80527390004136,133.80527390004136,1,[0.00040220003575086594],[0.9951174999587238],-22.962962962962962,0.44468139996752143,1.3499986380338669e-05,134.80515000014566,134.80515000014566,,,P13,001,2023-04-14_15h40.30.713,trial uncanny,2022.2.5,59.25016544406894,
Mechanical,BSF,Stimuli For Psychopy\Robotic\matched-c10.jpeg,matched-c10.jpeg,0,19,19,45,,,,,,,137.08864279999398,137.08864279999398,1,[0.00039119995199143887],[0.9907779998611659],-10.740740740740733,0.7000547000207007,1.5900004655122757e-05,138.09084900002927,138.09084900002927,,,P13,001,2023-04-14_15h40.30.713,trial uncanny,2022.2.5,59.25016544406894,
Humanoid,HSF,Stimuli For Psychopy\Robotic\matched-32-cpi-low-c61.jpeg,matched-32-cpi-low-c61.jpeg,0,20,20,32,,,,,,,140.65483960020356,140.65483960020356,1,[0.0087892001029104],[1.0090620999690145],-43.148148148148145,0.6822748999111354,1.4199875295162201e-05,141.65489410003647,141.65489410003647,,,P13,001,2023-04-14_15h40.30.713,trial uncanny,2022.2.5,59.25016544406894,
Humanoid,LSF,Stimuli For Psychopy\Robotic\matched-8-cpi-low-c64.jpeg,matched-8-cpi-low-c64.jpeg,0,21,21,19,,,,,,,144.20513830007985,144.20513830007985,1,[0.009860799880698323],[1.011370399966836],-24.444444444444443,0.947946600150317,1.3299984857439995e-05,145.20507230004296,145.20507230004296,,,P13,001,2023-04-14_15h40.30.713,trial uncanny,2022.2.5,59.25016544406894,
Humanoid,HSF,Stimuli For Psychopy\Robotic\matched-32-cpi-low-c63.jpeg,matched-32-cpi-low-c63.jpeg,0,22,22,33,,,,,,,148.0405894999858,148.0405894999858,1,[0.008590899873524904],[1.0084238999988884],-31.29629629629629,0.5659813000820577,1.2600095942616463e-05,149.0384664000012,149.0384664000012,,,P13,001,2023-04-14_15h40.30.713,trial uncanny,2022.2.5,59.25016544406894,
Mechanical,LSF,Stimuli For Psychopy\Robotic\matched-8-cpi-low-c11.jpeg,matched-8-cpi-low-c11.jpeg,0,23,23,61,,,,,,,151.53821450006217,151.53821450006217,1,[0.00042869988828897476],[0.9747220000717789],-32.96296296296296,0.6281004999764264,1.750001683831215e-05,,,,,P13,001,2023-04-14_15h40.30.713,trial uncanny,2022.2.5,59.25016544406894,
Mechanical,BSF,Stimuli For Psychopy\Robotic\matched-c43.jpeg,Matched-c43.jpeg,0,24,24,51,,,,,,,155.00473470008,155.00473470008,1,[0.008466799976304173],[0.9941825000569224],-43.888888888888886,0.5819616999942809,2.0799925550818443e-05,,,,,P13,001,2023-04-14_15h40.30.713,trial uncanny,2022.2.5,59.25016544406894,
Mechanical,BSF,Stimuli For Psychopy\Robotic\matched-c14.jpeg,matched-c14.jpeg,0,25,25,48,,,,,,,158.47144550015219,158.47144550015219,1,[0.008537499932572246],[1.0065041999332607],-48.51851851851852,0.3994416000787169,1.6700010746717453e-05,159.47353140008636,159.47353140008636,,,P13,001,2023-04-14_15h40.30.713,trial uncanny,2022.2.5,59.25016544406894,
Humanoid,HSF,Stimuli For Psychopy\Robotic\matched-32-cpi-low-c65.jpeg,matched-32-cpi-low-c65.jpeg,0,26,26,35,,,,,,,161.67278640018776,161.67278640018776,1,[0.009165900060907006],[1.0091159001458436],-43.51851851851851,0.46677950001321733,1.5099998563528061e-05,,,,,P13,001,2023-04-14_15h40.30.713,trial uncanny,2022.2.5,59.25016544406894,
Humanoid,BSF,Stimuli For Psychopy\Robotic\matched-c76.jpeg,matched-c76.jpeg,0,27,27,12,,,,,,,164.95448710001074,164.95448710001074,1,[0.0004494998138397932],[0.9901794998440892],-23.51851851851852,0.832505099941045,1.3899989426136017e-05,165.95482740015723,165.95482740015723,,,P13,001,2023-04-14_15h40.30.713,trial uncanny,2022.2.5,59.25016544406894,
Mechanical,LSF,Stimuli For Psychopy\Robotic\matched-8-cpi-low-c17.jpeg,matched-8-cpi-low-c17.jpeg,0,28,28,65,,,,,,,168.62354100006633,168.62354100006633,1,[0.0005500998813658953],[0.9958317999262363],-23.51851851851852,0.494747799821198,1.2899981811642647e-05,169.62665690016001,169.62665690016001,,,P13,001,2023-04-14_15h40.30.713,trial uncanny,2022.2.5,59.25016544406894,
Mechanical,LSF,Stimuli For Psychopy\Robotic\matched-8-cpi-low-c14.jpeg,matched-8-cpi-low-c14.jpeg,0,29,29,63,,,,,,,172.08767210016958,172.08767210016958,1,[0.009418800007551908],[1.0091889000032097],-23.888888888888886,0.30029219994321465,1.309998333454132e-05,173.0875297000166,173.0875297000166,,,P13,001,2023-04-14_15h40.30.713,trial uncanny,2022.2.5,59.25016544406894,
Humanoid,BSF,Stimuli For Psychopy\Robotic\matched-c79.jpeg,matched-c79.jpeg,0,30,30,14,,,,,,,175.2250110001769,175.2250110001769,1,[0.0004157999064773321],[1.0058656998444349],21.48148148148148,0.4823400001041591,1.619989052414894e-05,176.23766270000488,176.23766270000488,,,P13,001,2023-04-14_15h40.30.713,trial uncanny,2022.2.5,59.25016544406894,
Humanoid,BSF,Stimuli For Psychopy\Robotic\matched-c69.jpeg,matched-c69.jpeg,0,31,31,8,,,,,,,178.50426549999975,178.50426549999975,1,[0.00044570001773536205],[0.9938869001343846],9.81481481481481,0.6971424999646842,1.2799864634871483e-05,179.5063699001912,179.5063699001912,,,P13,001,2023-04-14_15h40.30.713,trial uncanny,2022.2.5,59.25016544406894,
Mechanical,BSF,Stimuli For Psychopy\Robotic\matched-c11.jpeg,matched-c11.jpeg,0,32,32,46,,,,,,,181.9873033000622,181.9873033000622,1,[0.00043169991113245487],[0.9937275999691337],-18.33333333333333,0.4822672000154853,1.600012183189392e-05,182.99020010000095,182.99020010000095,,,P13,001,2023-04-14_15h40.30.713,trial uncanny,2022.2.5,59.25016544406894,
Humanoid,BSF,Stimuli For Psychopy\Robotic\matched-c77.jpeg,matched-c77.jpeg,0,33,33,13,,,,,,,185.40626590000466,185.40626590000466,1,[0.008514499990269542],[1.0065774000249803],-11.29629629629629,0.3331443998031318,1.4499993994832039e-05,,,,,P13,001,2023-04-14_15h40.30.713,trial uncanny,2022.2.5,59.25016544406894,
Mechanical,BSF,Stimuli For Psychopy\Robotic\matched-c33.jpeg,matched-c33.jpeg,0,34,34,53,,,,,,,188.88954700017348,188.88954700017348,1,[0.0004485000390559435],[0.9919716001022607],2.5925925925925952,0.6491275001317263,2.059992402791977e-05,189.88733540009707,189.88733540009707,,,P13,001,2023-04-14_15h40.30.713,trial uncanny,2022.2.5,59.25016544406894,
Humanoid,LSF,Stimuli For Psychopy\Robotic\matched-8-cpi-low-c66.jpeg,matched-8-cpi-low-c66.jpeg,0,35,35,21,,,,,,,192.33959990018047,192.33959990018047,1,[0.00040820008143782616],[1.0075407000258565],-39.444444444444436,0.1999719999730587,1.4200108125805855e-05,193.3560864001047,193.3560864001047,,,P13,001,2023-04-14_15h40.30.713,trial uncanny,2022.2.5,59.25016544406894,
Mechanical,BSF,Stimuli For Psychopy\Robotic\matched-c36.jpeg,matched-c36.jpeg,0,36,36,55,,,,,,,195.4204202000983,195.4204202000983,1,[0.008567200042307377],[1.0087919000070542],-27.962962962962962,0.48295560013502836,1.5199882909655571e-05,196.42038550018333,196.42038550018333,,,P13,001,2023-04-14_15h40.30.713,trial uncanny,2022.2.5,59.25016544406894,
Mechanical,LSF,Stimuli For Psychopy\Robotic\matched-8-cpi-low-c33.jpeg,matched-8-cpi-low-c33.jpeg,0,37,37,68,,,,,,,198.72261669998989,198.72261669998989,2,"[0.009071800159290433, 0.3258790001273155]","[0.27551529998891056, 1.0091436000075191]",-30.0,0.4353449000045657,1.2299977242946625e-05,199.72271930007264,199.72271930007264,,,P13,001,2023-04-14_15h40.30.713,trial uncanny,2022.2.5,59.25016544406894,
Humanoid,BSF,Stimuli For Psychopy\Robotic\matched-c64.jpeg,matched-c64.jpeg,0,38,38,4,,,,,,,202.00354350009002,202.00354350009002,1,[0.008693499956279993],[1.0092162999790162],-42.22222222222223,0.5717094000428915,1.3599870726466179e-05,203.0060871001333,203.0060871001333,,,P13,001,2023-04-14_15h40.30.713,trial uncanny,2022.2.5,59.25016544406894,
Humanoid,HSF,Stimuli For Psychopy\Robotic\matched-32-cpi-low-c77.jpeg,matched-32-cpi-low-c77.jpeg,0,39,39,43,,,,,,,205.4059352001641,205.4059352001641,1,[0.009007600136101246],[1.0070532001554966],19.074074074074062,0.5506313000805676,1.4400109648704529e-05,,,,,P13,001,2023-04-14_15h40.30.713,trial uncanny,2022.2.5,59.25016544406894,
Humanoid,LSF,Stimuli For Psychopy\Robotic\matched-8-cpi-low-c72.jpeg,matched-8-cpi-low-c72.jpeg,0,40,40,25,,,,,,,208.72063580015674,208.72063580015674,1,[0.00041069998405873775],[0.9919752001296729],-43.888888888888886,0.3325320999138057,1.2299977242946625e-05,209.72277150000446,209.72277150000446,,,P13,001,2023-04-14_15h40.30.713,trial uncanny,2022.2.5,59.25016544406894,
Mechanical,LSF,Stimuli For Psychopy\Robotic\matched-8-cpi-low-c41.jpeg,matched-8-cpi-low-c41.jpeg,0,41,41,73,,,,,,,211.88903700001538,211.88903700001538,1,[0.0069102998822927475],[1.0066601999569684],-24.074074074074076,0.5498153001535684,1.3199867680668831e-05,,,,,P13,001,2023-04-14_15h40.30.713,trial uncanny,2022.2.5,59.25016544406894,
Humanoid,HSF,Stimuli For Psychopy\Robotic\matched-32-cpi-low-c66.jpeg,matched-32-cpi-low-c66.jpeg,0,42,42,36,,,,,,,215.2868900001049,215.2868900001049,1,[0.0005791999865323305],[0.9925368998665363],12.962962962962948,0.8016133001074195,1.2800097465515137e-05,216.28666840004735,216.28666840004735,,,P13,001,2023-04-14_15h40.30.713,trial uncanny,2022.2.5,59.25016544406894,
Humanoid,HSF,Stimuli For Psychopy\Robotic\matched-32-cpi-low-c72.jpeg,matched-32-cpi-low-c72.jpeg,0,43,43,40,,,,,,,219.33897130005062,219.33897130005062,1,[0.006553299957886338],[1.006915200036019],4.259259259259252,1.2995733998250216,1.4699995517730713e-05,,,,,P13,001,2023-04-14_15h40.30.713,trial uncanny,2022.2.5,59.25016544406894,
Mechanical,HSF,Stimuli For Psychopy\Robotic\matched-32-cpi-low-c38.jpeg,matched-32-cpi-low-c38.jpeg,0,44,44,87,,,,,,,223.4890156001784,223.4890156001784,1,[0.00035099987871944904],[0.9922258998267353],-23.888888888888886,0.46410070010460913,1.6700010746717453e-05,224.48670390015468,224.48670390015468,,,P13,001,2023-04-14_15h40.30.713,trial uncanny,2022.2.5,59.25016544406894,
Humanoid,HSF,Stimuli For Psychopy\Robotic\matched-32-cpi-low-c71.jpeg,matched-32-cpi-low-c71.jpeg,0,45,45,39,,,,,,,226.75302830012515,226.75302830012515,1,[0.009727800032123923],[1.0093356999568641],3.333333333333343,1.018404400208965,1.3699987903237343e-05,227.7530191000551,227.7530191000551,,,P13,001,2023-04-14_15h40.30.713,trial uncanny,2022.2.5,59.25016544406894,
Humanoid,HSF,Stimuli For Psychopy\Robotic\matched-32-cpi-low-c64.jpeg,matched-32-cpi-low-c64.jpeg,0,46,46,34,,,,,,,230.65321010001935,230.65321010001935,1,[0.009298700140789151],[1.008893599966541],-21.296296296296305,0.6829941999167204,1.3599870726466179e-05,231.6582389001269,231.6582389001269,,,P13,001,2023-04-14_15h40.30.713,trial uncanny,2022.2.5,59.25016544406894,
Humanoid,BSF,Stimuli For Psychopy\Robotic\matched-c58.jpeg,matched-c58.jpeg,0,47,47,1,,,,,,,234.18845070013776,234.18845070013776,1,[0.01128570013679564],[1.009337600087747],-40.0,0.6222502999007702,1.3999873772263527e-05,,,,,P13,001,2023-04-14_15h40.30.713,trial uncanny,2022.2.5,59.25016544406894,
Mechanical,LSF,Stimuli For Psychopy\Robotic\matched-8-cpi-low-c10.jpeg,matched-8-cpi-low-c10.jpeg,0,48,48,60,,,,,,,237.6529531001579,237.6529531001579,1,[0.0098365000449121],[1.009836900047958],-30.0,0.8177465999033302,2.0799925550818443e-05,238.65525509999134,238.65525509999134,,,P13,001,2023-04-14_15h40.30.713,trial uncanny,2022.2.5,59.25016544406894,
Humanoid,BSF,Stimuli For Psychopy\Robotic\matched-c74.jpeg,matched-c74.jpeg,0,49,49,11,,,,,,,241.6861782001797,241.6861782001797,1,[0.009130199905484915],[1.0087998998351395],-75.74074074074073,0.6491626999340951,1.309998333454132e-05,242.68604760011658,242.68604760011658,,,P13,001,2023-04-14_15h40.30.713,trial uncanny,2022.2.5,59.25016544406894,
Humanoid,LSF,Stimuli For Psychopy\Robotic\matched-8-cpi-low-c74.jpeg,matched-8-cpi-low-c74.jpeg,0,50,50,26,,,,,,,245.38851370010525,245.38851370010525,1,[0.00955029996111989],[1.0094682001508772],-65.18518518518519,0.36956409993581474,1.4299992471933365e-05,246.3864777002018,246.3864777002018,,,P13,001,2023-04-14_15h40.30.713,trial uncanny,2022.2.5,59.25016544406894,
Humanoid,HSF,Stimuli For Psychopy\Robotic\matched-32-cpi-low-c74.jpeg,matched-32-cpi-low-c74.jpeg,0,51,51,41,,,,,,,249.0026613001246,249.0026613001246,1,[0.00046909996308386326],[0.9927151999436319],-50.0,0.3493892000988126,1.3300217688083649e-05,250.00496140005998,250.00496140005998,,,P13,001,2023-04-14_15h40.30.713,trial uncanny,2022.2.5,59.25016544406894,
Mechanical,HSF,Stimuli For Psychopy\Robotic\matched-32-cpi-low-c14.jpeg,matched-32-cpi-low-c14.jpeg,0,52,52,78,,,,,,,252.50471520004794,252.50471520004794,1,[0.009221100015565753],[1.0073475001845509],-45.18518518518518,0.4672395000234246,1.8399907276034355e-05,,,,,P13,001,2023-04-14_15h40.30.713,trial uncanny,2022.2.5,59.25016544406894,
Humanoid,LSF,Stimuli For Psychopy\Robotic\matched-8-cpi-low-c63.jpeg,matched-8-cpi-low-c63.jpeg,0,53,53,18,,,,,,,255.8023248000536,255.8023248000536,1,[0.1768922999035567],[1.010180399985984],-52.59259259259259,0.35253839986398816,1.3800105080008507e-05,256.8023178000003,256.8023178000003,,,P13,001,2023-04-14_15h40.30.713,trial uncanny,2022.2.5,59.25016544406894,
Mechanical,HSF,Stimuli For Psychopy\Robotic\matched-32-cpi-low-c42.jpeg,matched-32-cpi-low-c42.jpeg,0,54,54,89,,,,,,,259.0048392000608,259.0048392000608,1,[0.007153599988669157],[1.0072687999345362],-40.925925925925924,0.48849200014956295,1.2899981811642647e-05,,,,,P13,001,2023-04-14_15h40.30.713,trial uncanny,2022.2.5,59.25016544406894,
Humanoid,HSF,Stimuli For Psychopy\Robotic\matched-32-cpi-low-c76.jpeg,matched-32-cpi-low-c76.jpeg,0,55,55,42,,,,,,,262.30231100018136,262.30231100018136,1,[0.00912240007892251],[1.0091560001019388],-42.592592592592595,0.60568039980717,1.650000922381878e-05,263.3047067001462,263.3047067001462,,,P13,001,2023-04-14_15h40.30.713,trial uncanny,2022.2.5,59.25016544406894,
Mechanical,BSF,Stimuli For Psychopy\Robotic\matched-c35.jpeg,matched-c35.jpeg,0,56,56,54,,,,,,,265.82112740003504,265.82112740003504,1,[0.009046399965882301],[1.0085265999659896],-62.96296296296296,0.49987950013019145,1.5300000086426735e-05,,,,,P13,001,2023-04-14_15h40.30.713,trial uncanny,2022.2.5,59.25016544406894,
Humanoid,LSF,Stimuli For Psychopy\Robotic\matched-8-cpi-low-c77.jpeg,matched-8-cpi-low-c77.jpeg,0,57,57,28,,,,,,,269.43930840003304,269.43930840003304,1,[0.000417300034314394],[1.0042497001122683],14.81481481481481,0.7489666000474244,1.2699980288743973e-05,270.4523869000841,270.4523869000841,,,P13,001,2023-04-14_15h40.30.713,trial uncanny,2022.2.5,59.25016544406894,
Mechanical,LSF,Stimuli For Psychopy\Robotic\matched-8-cpi-low-c37.jpeg,matched-8-cpi-low-c37.jpeg,0,58,58,71,,,,,,,273.01862840005197,273.01862840005197,2,"[0.009792800061404705, 0.12630430003628135]","[0.0776692999061197, 1.009911600034684]",-26.48148148148148,0.6524169000331312,1.2599863111972809e-05,274.0188226001337,274.0188226001337,,,P13,001,2023-04-14_15h40.30.713,trial uncanny,2022.2.5,59.25016544406894,
Humanoid,BSF,Stimuli For Psychopy\Robotic\matched-c63.jpeg,matched-c63.jpeg,0,59,59,3,,,,,,,276.4709666999988,276.4709666999988,1,[0.00973849999718368],[1.0146920999977738],-46.111111111111114,0.2608519000932574,1.4899997040629387e-05,277.4736273000017,277.4736273000017,,,P13,001,2023-04-14_15h40.30.713,trial uncanny,2022.2.5,59.25016544406894,
Mechanical,BSF,Stimuli For Psychopy\Robotic\matched-c37.jpeg,matched-c37.jpeg,0,60,60,56,,,,,,,279.835328000132,279.835328000132,1,[0.00927340006455779],[0.9978233999572694],-37.77777777777778,0.7452100000809878,1.7399899661540985e-05,,,,,P13,001,2023-04-14_15h40.30.713,trial uncanny,2022.2.5,59.25016544406894,
Mechanical,LSF,Stimuli For Psychopy\Robotic\matched-8-cpi-low-c42.jpeg,matched-8-cpi-low-c42.jpeg,0,61,61,74,,,,,,,283.4184656001162,283.4184656001162,1,[0.010183699894696474],[1.0098343000281602],-30.555555555555557,0.6999206999316812,1.750001683831215e-05,284.4184425000567,284.4184425000567,,,P13,001,2023-04-14_15h40.30.713,trial uncanny,2022.2.5,59.25016544406894,
Mechanical,HSF,Stimuli For Psychopy\Robotic\matched-32-cpi-low-c37.jpeg,matched-32-cpi-low-c37.jpeg,0,62,62,86,,,,,,,287.20184730016626,287.20184730016626,1,[0.0004633998032659292],[0.9922431998420507],-33.14814814814815,0.3827842001337558,1.7900019884109497e-05,288.2020390999969,288.2020390999969,,,P13,001,2023-04-14_15h40.30.713,trial uncanny,2022.2.5,59.25016544406894,
Mechanical,HSF,Stimuli For Psychopy\Robotic\matched-32-cpi-low-c35.jpeg,matched-32-cpi-low-c35.jpeg,0,63,63,84,,,,,,,290.50191320013255,290.50191320013255,1,[0.010454100091010332],[1.0104692000895739],12.037037037037052,0.41430100006982684,1.5300000086426735e-05,291.50172980013303,291.50172980013303,,,P13,001,2023-04-14_15h40.30.713,trial uncanny,2022.2.5,59.25016544406894,
Mechanical,HSF,Stimuli For Psychopy\Robotic\matched-32-cpi-low-c33.jpeg,matched-32-cpi-low-c33.jpeg,0,64,64,83,,,,,,,293.6875799000263,293.6875799000263,1,[0.00617980002425611],[1.0062287000473589],-22.407407407407405,0.3002414999064058,1.6200123354792595e-05,,,,,P13,001,2023-04-14_15h40.30.713,trial uncanny,2022.2.5,59.25016544406894,
Mechanical,LSF,Stimuli For Psychopy\Robotic\matched-8-cpi-low-c38.jpeg,matched-8-cpi-low-c38.jpeg,0,65,65,72,,,,,,,296.81829790002666,296.81829790002666,1,[0.0004771000239998102],[0.9903579999227077],-6.481481481481481,0.5675579998642206,1.3999873772263527e-05,297.8184958000202,297.8184958000202,,,P13,001,2023-04-14_15h40.30.713,trial uncanny,2022.2.5,59.25016544406894,
Mechanical,LSF,Stimuli For Psychopy\Robotic\matched-8-cpi-low-c27.jpeg,matched-8-cpi-low-c27.jpeg,0,66,66,67,,,,,,,300.16832850011997,300.16832850011997,1,[0.0004725998733192682],[0.9928055999334902],23.703703703703695,3.4805942999664694,1.500011421740055e-05,301.170513600111,301.170513600111,,,P13,001,2023-04-14_15h40.30.713,trial uncanny,2022.2.5,59.25016544406894,
Mechanical,HSF,Stimuli For Psychopy\Robotic\matched-32-cpi-low-c27.jpeg,matched-32-cpi-low-c27.jpeg,0,67,67,82,,,,,,,306.6203402001411,306.6203402001411,1,[0.0004040999338030815],[1.0074344999156892],39.62962962962965,0.3169797998853028,1.2699980288743973e-05,307.634842999978,307.634842999978,,,P13,001,2023-04-14_15h40.30.713,trial uncanny,2022.2.5,59.25016544406894,
Humanoid,BSF,Stimuli For Psychopy\Robotic\matched-c65.jpeg,matched-c65.jpeg,0,68,68,5,,,,,,,309.75138770020567,309.75138770020567,1,[0.0091004001442343],[1.0071552000008523],-33.14814814814815,0.6325642999727279,1.3699987903237343e-05,310.75146100018173,310.75146100018173,,,P13,001,2023-04-14_15h40.30.713,trial uncanny,2022.2.5,59.25016544406894,
Humanoid,LSF,Stimuli For Psychopy\Robotic\matched-8-cpi-low-c76.jpeg,matched-8-cpi-low-c76.jpeg,0,69,69,27,,,,,,,313.25377549999394,313.25377549999394,5,"[0.09223370021209121, 0.20868630008772016, 0.29399400018155575, 0.46086180000565946, 0.6609118001069874]","[0.17767000012099743, 0.2591610001400113, 0.37529610004276037, 0.6253724000416696, 0.7772713000886142]",-24.444444444444443,0.5482705000322312,1.4600111171603203e-05,,,,,P13,001,2023-04-14_15h40.30.713,trial uncanny,2022.2.5,59.25016544406894,
Mechanical,BSF,Stimuli For Psychopy\Robotic\matched-c38.jpeg,matched-c38.jpeg,0,70,70,57,,,,,,,316.7343435001094,316.7343435001094,3,"[0.00046680006198585033, 0.5921259000897408, 0.7755265000741929]","[0.5591003999579698, 0.7253135999199003, 0.9923153999261558]",-29.629629629629633,0.5501490999013186,1.2400094419717789e-05,317.73430140013807,317.73430140013807,,,P13,001,2023-04-14_15h40.30.713,trial uncanny,2022.2.5,59.25016544406894,
Mechanical,HSF,Stimuli For Psychopy\Robotic\matched-32-cpi-low-c11.jpeg,matched-32-cpi-low-c11.jpeg,0,71,71,76,,,,,,,320.0845918999985,320.0845918999985,1,[0.0004181000404059887],[0.9920584999490529],-34.25925925925925,0.45273320004343987,1.659989356994629e-05,321.0845415000804,321.0845415000804,,,P13,001,2023-04-14_15h40.30.713,trial uncanny,2022.2.5,59.25016544406894,
Humanoid,HSF,Stimuli For Psychopy\Robotic\matched-32-cpi-low-c58.jpeg,matched-32-cpi-low-c58.jpeg,0,72,72,31,,,,,,,323.68684169999324,323.68684169999324,2,"[0.009065099991858006, 0.3276666000019759]","[0.20931360009126365, 0.9945775999221951]",-62.77777777777778,0.4813010999932885,1.7900019884109497e-05,,,,,P13,001,2023-04-14_15h40.30.713,trial uncanny,2022.2.5,59.25016544406894,
Mechanical,HSF,Stimuli For Psychopy\Robotic\matched-32-cpi-low-c10.jpeg,matched-32-cpi-low-c10.jpeg,0,73,73,75,,,,,,,327.41744290012866,327.41744290012866,3,"[0.00771670020185411, 0.1077168001793325, 0.7248991001397371]","[0.07455470017157495, 0.6412826001178473, 1.0078314000274986]",-53.333333333333336,0.46603800007142127,1.6300007700920105e-05,328.4175025001168,328.4175025001168,,,P13,001,2023-04-14_15h40.30.713,trial uncanny,2022.2.5,59.25016544406894,
Humanoid,BSF,Stimuli For Psychopy\Robotic\matched-c72.jpeg,matched-c72.jpeg,0,74,74,10,,,,,,,330.6864346000366,330.6864346000366,2,"[0.0005574000533670187, 0.4088366001378745]","[0.35917670000344515, 0.992160800145939]",-29.444444444444457,0.5975969999562949,1.2999866157770157e-05,331.68438039999455,331.68438039999455,,,P13,001,2023-04-14_15h40.30.713,trial uncanny,2022.2.5,59.25016544406894,
Humanoid,LSF,Stimuli For Psychopy\Robotic\matched-8-cpi-low-c67.jpeg,matched-8-cpi-low-c67.jpeg,0,75,75,22,,,,,,,334.1507107000798,334.1507107000798,1,[0.009378600167110562],[1.0096156001091003],-26.666666666666657,0.8055068999528885,1.729978248476982e-05,335.153224500129,335.153224500129,,,P13,001,2023-04-14_15h40.30.713,trial uncanny,2022.2.5,59.25016544406894,
Humanoid,LSF,Stimuli For Psychopy\Robotic\matched-8-cpi-low-c69.jpeg,matched-8-cpi-low-c69.jpeg,0,76,76,23,,,,,,,337.986872700043,337.986872700043,1,[0.0003573999274522066],[1.0039228999521583],-50.0,0.5330262000206858,1.2899981811642647e-05,339.0006564001087,339.0006564001087,,,P13,001,2023-04-14_15h40.30.713,trial uncanny,2022.2.5,59.25016544406894,
Humanoid,HSF,Stimuli For Psychopy\Robotic\matched-32-cpi-low-c69.jpeg,matched-32-cpi-low-c69.jpeg,0,77,77,38,,,,,,,341.372979399981,341.372979399981,1,[0.005944300210103393],[1.0039452000055462],15.740740740740748,0.8172364998608828,1.700012944638729e-05,,,,,P13,001,2023-04-14_15h40.30.713,trial uncanny,2022.2.5,59.25016544406894,
Mechanical,HSF,Stimuli For Psychopy\Robotic\matched-32-cpi-low-c36.jpeg,matched-32-cpi-low-c36.jpeg,0,78,78,85,,,,,,,345.25065469997935,345.25065469997935,3,"[0.008421699982136488, 0.3589040001388639, 0.4750751000829041]","[0.3106829000171274, 0.44409599993377924, 0.9943140000104904]",-50.92592592592593,0.4999023999553174,1.4699995517730713e-05,,,,,P13,001,2023-04-14_15h40.30.713,trial uncanny,2022.2.5,59.25016544406894,
Humanoid,LSF,Stimuli For Psychopy\Robotic\matched-8-cpi-low-c48.jpeg,matched-8-cpi-low-c48.jpeg,0,79,79,15,,,,,,,348.75277650007047,348.75277650007047,1,[0.007506499998271465],[1.007347100181505],-50.0,0.4320184998214245,1.6999896615743637e-05,,,,,P13,001,2023-04-14_15h40.30.713,trial uncanny,2022.2.5,59.25016544406894,
Mechanical,HSF,Stimuli For Psychopy\Robotic\matched-32-cpi-low-c16.jpeg,matched-32-cpi-low-c16.jpeg,0,80,80,79,,,,,,,352.18353340006433,352.18353340006433,1,[0.0004267999902367592],[0.9899148000404239],-47.22222222222222,0.5327088998164982,1.559988595545292e-05,353.18407150008716,353.18407150008716,,,P13,001,2023-04-14_15h40.30.713,trial uncanny,2022.2.5,59.25016544406894,
Humanoid,HSF,Stimuli For Psychopy\Robotic\matched-32-cpi-low-c67.jpeg,matched-32-cpi-low-c67.jpeg,0,81,81,37,,,,,,,355.619123800192,355.619123800192,1,[0.00040030013769865036],[0.9929462999571115],-30.925925925925924,1.2142038000747561,1.6700010746717453e-05,356.6170111000538,356.6170111000538,,,P13,001,2023-04-14_15h40.30.713,trial uncanny,2022.2.5,59.25016544406894,
Humanoid,HSF,Stimuli For Psychopy\Robotic\matched-32-cpi-low-c48.jpeg,matched-32-cpi-low-c48.jpeg,0,82,82,30,,,,,,,359.73355110012926,359.73355110012926,1,[0.0004507999401539564],[0.97470170003362],-50.37037037037037,0.43312330008484423,1.4799879863858223e-05,,,,,P13,001,2023-04-14_15h40.30.713,trial uncanny,2022.2.5,59.25016544406894,
Mechanical,BSF,Stimuli For Psychopy\Robotic\matched-c17.jpeg,matched-c17.jpeg,0,83,83,50,,,,,,,363.43325370014645,363.43325370014645,1,[0.008491000160574913],[1.0088516001123935],-36.85185185185185,0.3852393999695778,1.3899989426136017e-05,364.43568760016933,364.43568760016933,,,P13,001,2023-04-14_15h40.30.713,trial uncanny,2022.2.5,59.25016544406894,
Mechanical,LSF,Stimuli For Psychopy\Robotic\matched-8-cpi-low-c35.jpeg,matched-8-cpi-low-c35.jpeg,0,84,84,69,,,,,,,366.6705732999835,366.6705732999835,1,[0.0004124999977648258],[1.0037892998661846],-28.888888888888886,0.5846302001737058,2.4099834263324738e-05,367.68596899998374,367.68596899998374,,,P13,001,2023-04-14_15h40.30.713,trial uncanny,2022.2.5,59.25016544406894,
Mechanical,LSF,Stimuli For Psychopy\Robotic\matched-8-cpi-low-c12.jpeg,matched-8-cpi-low-c12.jpeg,0,85,85,62,,,,,,,370.1355706001632,370.1355706001632,1,[0.009581200079992414],[1.0099568001460284],-49.44444444444444,0.5971649000421166,1.4499993994832039e-05,371.13568990002386,371.13568990002386,,,P13,001,2023-04-14_15h40.30.713,trial uncanny,2022.2.5,59.25016544406894,
Humanoid,BSF,Stimuli For Psychopy\Robotic\matched-c61.jpeg,matched-c61.jpeg,0,86,86,2,,,,,,,373.58329970017076,373.58329970017076,1,[0.008699399884790182],[1.0087557998485863],-39.62962962962963,0.4514695000834763,1.200009137392044e-05,374.58329630014487,374.58329630014487,,,P13,001,2023-04-14_15h40.30.713,trial uncanny,2022.2.5,59.25016544406894,
Humanoid,LSF,Stimuli For Psychopy\Robotic\matched-8-cpi-low-c58.jpeg,matched-8-cpi-low-c58.jpeg,0,87,87,16,,,,,,,377.1354448001366,377.1354448001366,1,[0.011508199851959944],[1.011340199969709],-44.44444444444444,0.9476098001468927,1.2299977242946625e-05,378.1353009000886,378.1353009000886,,,P13,001,2023-04-14_15h40.30.713,trial uncanny,2022.2.5,59.25016544406894,
Mechanical,LSF,Stimuli For Psychopy\Robotic\matched-8-cpi-low-c43.jpeg,matched-8-cpi-low-c43.jpeg,0,88,88,66,,,,,,,380.9858159001451,380.9858159001451,1,[0.01986850006505847],[1.0031343000009656],-46.666666666666664,0.4699186999350786,1.2899981811642647e-05,,,,,P13,001,2023-04-14_15h40.30.713,trial uncanny,2022.2.5,59.25016544406894,
Mechanical,HSF,Stimuli For Psychopy\Robotic\matched-32-cpi-low-c12.jpeg,matched-32-cpi-low-c12.jpeg,0,89,89,77,,,,,,,384.31640960020013,384.31640960020013,1,[0.0006673000752925873],[0.9901254000142217],-57.407407407407405,0.5988791000563651,1.7600134015083313e-05,385.31634430005215,385.31634430005215,,,P13,001,2023-04-14_15h40.30.713,trial uncanny,2022.2.5,59.25016544406894,
,,,,,,,,,,,,,,,,,,,,,,,,0.0168161999899894,1.0198821001686156,,,,,,,
