Type,Spatial_Frequency,filepath,file_name,human_trials.thisRepN,human_trials.thisTrialN,human_trials.thisN,human_trials.thisIndex,instruction.started,key_resp.started,key_resp.keys,key_resp.rt,etRecord.started,etRecord.stopped,Human_image.started,roi.started,roi.numLooks,roi.timesOn,roi.timesOff,Likebility_slider_3.started,ratingText.started,image.started,mouse.started,Likebility_slider_3.response,Likebility_slider_3.rt,mouse.x,mouse.y,mouse.leftButton,mouse.midButton,mouse.rightButton,mouse.time,mouse.clicked_name,ISI_2.started,Human_image.stopped,roi.stopped,etRecord_2.started,etRecord_2.stopped,participant,session,date,expName,psychopyVersion,frameRate,
,,,,,,,,25.509250799994334,25.509250799994334,space,1.3351106999907643,,,,,,,,,,,,,,,,,,,,,,,,,,VYV,001,2023-04-16_21h41.58.414,Human_uncanny,2022.2.5,60.22753964380267,
Human,BSF,Stimuli For Psychopy/Human/matched-Rafd090_31_Caucasian_female_neutral_frontal.jpg,matched-Rafd090_31_Caucasian_female_neutral_frontal.jpg,0,0,0,40,,,,,1.2899996363557875e-05,1.2899996363557875e-05,27.87667230000079,27.87667230000079,1,[0.0006465000042226166],[0.9872898000030546],28.89044279999507,28.89044279999507,30.356082099999185,1.4780390999949304,28.703703703703695,1.447934299998451,[0.5009259259259259],[-0.425],[1],[0],[0],[1.1517756999965059],['image'],1.410000550094992e-05,,,,,VYV,001,2023-04-16_21h41.58.414,Human_uncanny,2022.2.5,60.22753964380267,
Human,BSF,Stimuli For Psychopy/Human/matched-Rafd090_24_Caucasian_male_neutral_frontal.jpg,matched-Rafd090_24_Caucasian_male_neutral_frontal.jpg,0,1,1,36,,,,,,,32.988885700004175,32.988885700004175,1,[0.000574699995922856],[0.9928348999965237],33.99126969999634,33.99126969999634,34.82263310000417,0.8144864000059897,42.96296296296296,0.812719499997911,[0.524074074074074],[-0.47129629629629627],[1],[0],[0],[0.6158676000050036],['image'],1.2699994840659201e-05,33.99126969999634,33.99126969999634,,,VYV,001,2023-04-16_21h41.58.414,Human_uncanny,2022.2.5,60.22753964380267,
Human,LSF,Stimuli For Psychopy/Human/matched-8-cpi-low-Rafd090_32_Caucasian_female_neutral_frontal.jpg,matched-8-cpi-low-Rafd090_32_Caucasian_female_neutral_frontal.jpg,0,2,2,11,,,,,,,36.92520030000014,36.92520030000014,1,[0.0004025999951409176],[0.9965044999989914],37.92467459999898,37.92467459999898,40.27469069999643,2.33474349998869,-53.888888888888886,3.9957449000066845,"[-0.26944444444444443, 0.49444444444444446]","[-0.09537037037037037, -0.4083333333333333]","[1, 1]","[0, 0]","[0, 0]","[1.5981071999995038, 2.181335899993428]",['image'],1.7700003809295595e-05,37.92467459999898,37.92467459999898,,,VYV,001,2023-04-16_21h41.58.414,Human_uncanny,2022.2.5,60.22753964380267,
Human,LSF,Stimuli For Psychopy/Human/matched-8-cpi-low-Rafd090_33_Caucasian_male_neutral_frontal.jpg,matched-8-cpi-low-Rafd090_33_Caucasian_male_neutral_frontal.jpg,0,3,3,12,,,,,,,43.9375757999951,43.9375757999951,1,[0.00045539998973254114],[0.9926081000012346],44.94119499999215,44.94119499999215,46.53910090000136,1.5813663000008091,-39.62962962962963,1.5808355000044685,[0.5842592592592593],[-0.46574074074074073],[1],[0],[0],[0.6854175999906147],['image'],1.4099990949034691e-05,44.94119499999215,44.94119499999215,,,VYV,001,2023-04-16_21h41.58.414,Human_uncanny,2022.2.5,60.22753964380267,
Human,LSF,Stimuli For Psychopy/Human/matched-8-cpi-low-Rafd090_01_Caucasian_female_neutral_frontal.jpg,matched-8-cpi-low-Rafd090_01_Caucasian_female_neutral_frontal.jpg,0,4,4,0,,,,,,,48.724580900001456,48.724580900001456,1,[0.01348860000143759],[1.0134053000074346],49.72432090000075,49.72432090000075,51.991150100002415,2.264344399998663,-41.11111111111111,2.249426599999424,[0.4722222222222222],[-0.43148148148148147],[1],[0],[0],[0.5667719000048237],['image'],1.479999627918005e-05,49.72432090000075,49.72432090000075,,,VYV,001,2023-04-16_21h41.58.414,Human_uncanny,2022.2.5,60.22753964380267,
Human,BSF,Stimuli For Psychopy/Human/matched-Rafd090_37_Caucasian_female_neutral_frontal.jpg,matched-Rafd090_37_Caucasian_female_neutral_frontal.jpg,0,5,5,44,,,,,,,54.05771939999249,54.05771939999249,1,[0.013432399995508604],[1.010899300003075],55.0720003000024,55.0720003000024,56.39103389999946,1.331710500002373,35.37037037037035,1.3031939000065904,[0.4685185185185185],[-0.4027777777777778],[1],[0],[0],[0.4340358999907039],['image'],1.4700010069645941e-05,,,,,VYV,001,2023-04-16_21h41.58.414,Human_uncanny,2022.2.5,60.22753964380267,
Human,BSF,Stimuli For Psychopy/Human/matched-Rafd090_32_Caucasian_female_neutral_frontal.jpg,matched-Rafd090_32_Caucasian_female_neutral_frontal.jpg,0,6,6,41,,,,,,,58.324300599997514,58.324300599997514,2,"[0.009263200001441874, 0.4569463999941945]","[0.4404162999999244, 1.0069121999986237]",59.33891789999325,59.33891789999325,60.105298599999514,0.7785747000016272,58.888888888888914,0.7485914999997476,[0.48703703703703705],[-0.41203703703703703],[1],[0],[0],[0.5021585999929812],['image'],1.2200005585327744e-05,,,,,VYV,001,2023-04-16_21h41.58.414,Human_uncanny,2022.2.5,60.22753964380267,
Human,BSF,Stimuli For Psychopy/Human/matched-Rafd090_12_Caucasian_female_neutral_frontal.jpg,matched-Rafd090_12_Caucasian_female_neutral_frontal.jpg,0,7,7,31,,,,,,,62.107615799992345,62.107615799992345,1,[0.3091814999934286],[1.0069340999907581],63.1203000999958,63.1203000999958,63.93859560000419,0.8277612000092631,54.074074074074076,0.7998072000045795,[0.4324074074074074],[-0.4111111111111111],[1],[0],[0],[0.5853990000032354],['image'],1.2299991794861853e-05,,,,,VYV,001,2023-04-16_21h41.58.414,Human_uncanny,2022.2.5,60.22753964380267,
Human,HSF,Stimuli For Psychopy/Human/matched-32-cpi-low-Rafd090_36_Caucasian_male_neutral_frontal.jpg,matched-32-cpi-low-Rafd090_36_Caucasian_male_neutral_frontal.jpg,0,8,8,28,,,,,,,66.00786569999764,66.00786569999764,1,[0.00046350000775419176],[0.9966758000082336],67.0071450999967,67.0071450999967,67.97186079999665,0.9482305999990785,18.70370370370371,0.9458262999978615,[0.487962962962963],[-0.4185185185185185],[1],[0],[0],[0.49900650000199676],['image'],1.4999997802078724e-05,67.0071450999967,67.0071450999967,,,VYV,001,2023-04-16_21h41.58.414,Human_uncanny,2022.2.5,60.22753964380267,
Human,HSF,Stimuli For Psychopy/Human/matched-32-cpi-low-Rafd090_33_Caucasian_male_neutral_frontal.jpg,matched-32-cpi-low-Rafd090_33_Caucasian_male_neutral_frontal.jpg,0,9,9,27,,,,,,,69.95376180000312,69.95376180000312,1,[0.0005416999920271337],[0.9905627999978606],70.95353199999954,70.95353199999954,71.5883962999942,0.6146779999980936,31.481481481481495,0.6150635999947554,[0.4305555555555556],[-0.4462962962962963],[1],[0],[0],[0.41850450000492856],['image'],1.6400008462369442e-05,70.95353199999954,70.95353199999954,,,VYV,001,2023-04-16_21h41.58.414,Human_uncanny,2022.2.5,60.22753964380267,
Human,LSF,Stimuli For Psychopy/Human/matched-8-cpi-low-Rafd090_19_Caucasian_female_neutral_frontal.jpg,matched-8-cpi-low-Rafd090_19_Caucasian_female_neutral_frontal.jpg,0,10,10,4,,,,,,,73.48637149999558,73.48637149999558,1,[0.0004478000046219677],[0.9930727000028128],74.49058579999837,74.49058579999837,75.28829179999593,0.7814505000133067,-35.74074074074073,0.7810443999915151,[0.4462962962962963],[-0.3972222222222222],[1],[0],[0],[0.5005108000041218],['image'],1.3600001693703234e-05,74.49058579999837,74.49058579999837,,,VYV,001,2023-04-16_21h41.58.414,Human_uncanny,2022.2.5,60.22753964380267,
Human,BSF,Stimuli For Psychopy/Human/matched-Rafd090_18_Caucasian_female_neutral_frontal.jpg,matched-Rafd090_18_Caucasian_female_neutral_frontal.jpg,0,11,11,33,,,,,,,77.27377469999192,77.27377469999192,1,[0.00040099999750964344],[0.9968425999977626],78.27382679999573,78.27382679999573,79.17160590000276,0.8798512000066694,45.55555555555554,0.8805676000047242,[0.4583333333333333],[-0.40925925925925927],[1],[0],[0],[0.4682874999998603],['image'],1.720000000204891e-05,78.27382679999573,78.27382679999573,,,VYV,001,2023-04-16_21h41.58.414,Human_uncanny,2022.2.5,60.22753964380267,
Human,HSF,Stimuli For Psychopy/Human/matched-32-cpi-low-Rafd090_01_Caucasian_female_neutral_frontal.jpg,matched-32-cpi-low-Rafd090_01_Caucasian_female_neutral_frontal.jpg,0,12,12,15,,,,,,,81.12156309999409,81.12156309999409,1,[0.0007628000021213666],[0.9916672999970615],82.12352739999187,82.12352739999187,83.05481359999976,0.9147083999996539,-24.074074074074076,0.9138928999891505,[0.44537037037037036],[-0.4222222222222222],[1],[0],[0],[0.4490922000113642],['image'],1.2699994840659201e-05,82.12352739999187,82.12352739999187,,,VYV,001,2023-04-16_21h41.58.414,Human_uncanny,2022.2.5,60.22753964380267,
Human,HSF,Stimuli For Psychopy/Human/matched-32-cpi-low-Rafd090_18_Caucasian_female_neutral_frontal.jpg,matched-32-cpi-low-Rafd090_18_Caucasian_female_neutral_frontal.jpg,0,13,13,18,,,,,,,84.9861860999954,84.9861860999954,1,[0.00038690000656060874],[0.9924126999976579],85.9900670999923,85.9900670999923,86.80477869999595,0.7997394999983953,-32.592592592592595,0.796049899989157,[0.40370370370370373],[-0.4166666666666667],[1],[0],[0],[0.41696679999586195],['image'],1.550000160932541e-05,85.9900670999923,85.9900670999923,,,VYV,001,2023-04-16_21h41.58.414,Human_uncanny,2022.2.5,60.22753964380267,
Human,BSF,Stimuli For Psychopy/Human/matched-Rafd090_26_Caucasian_female_neutral_frontal.jpg,matched-Rafd090_26_Caucasian_female_neutral_frontal.jpg,0,14,14,37,,,,,,,88.702764200003,88.702764200003,1,[0.00047870000707916915],[0.9932377000077395],89.70680620000348,89.70680620000348,91.03851279999071,1.3128370000049472,32.22222222222223,1.3146040999999968,[0.475],[-0.3990740740740741],[1],[0],[0],[0.43517209999845363],['image'],1.2699994840659201e-05,89.70680620000348,89.70680620000348,,,VYV,001,2023-04-16_21h41.58.414,Human_uncanny,2022.2.5,60.22753964380267,
Human,BSF,Stimuli For Psychopy/Human/matched-Rafd090_33_Caucasian_male_neutral_frontal.jpg,matched-Rafd090_33_Caucasian_male_neutral_frontal.jpg,0,15,15,42,,,,,,,92.956886999993,92.956886999993,1,[0.00040499999886378646],[0.9932654000003822],93.95684359999723,93.95684359999723,95.00464159999683,1.0319807000050787,55.18518518518519,1.0303646000102162,[0.41388888888888886],[-0.45925925925925926],[1],[0],[0],[0.4334072999918135],['image'],1.6999998479150236e-05,93.95684359999723,93.95684359999723,,,VYV,001,2023-04-16_21h41.58.414,Human_uncanny,2022.2.5,60.22753964380267,
Human,BSF,Stimuli For Psychopy/Human/matched-Rafd090_16_Caucasian_female_neutral_frontal.jpg,matched-Rafd090_16_Caucasian_female_neutral_frontal.jpg,0,16,16,32,,,,,,,96.9197634000011,96.9197634000011,1,[0.0006388000037986785],[0.9924926999956369],97.9234437999985,97.9234437999985,98.90447900000436,0.9650356999918586,66.4814814814815,0.9641383999987738,[0.3814814814814815],[-0.4111111111111111],[1],[0],[0],[0.5670828000002075],['image'],1.3699987903237343e-05,97.9234437999985,97.9234437999985,,,VYV,001,2023-04-16_21h41.58.414,Human_uncanny,2022.2.5,60.22753964380267,
Human,BSF,Stimuli For Psychopy/Human/matched-Rafd090_36_Caucasian_male_neutral_frontal.jpg,matched-Rafd090_36_Caucasian_male_neutral_frontal.jpg,0,17,17,43,,,,,,,100.957198899996,100.957198899996,1,[0.00045779999345541],[0.9931870000000345],101.95689069999207,101.95689069999207,102.70447409999906,0.7311292999947909,58.33333333333334,0.7308660999988206,[0.412962962962963],[-0.43333333333333335],[1],[0],[0],[0.35056710000208113],['image'],1.3299999409355223e-05,101.95689069999207,101.95689069999207,,,VYV,001,2023-04-16_21h41.58.414,Human_uncanny,2022.2.5,60.22753964380267,
Human,LSF,Stimuli For Psychopy/Human/matched-8-cpi-low-Rafd090_16_Caucasian_female_neutral_frontal.jpg,matched-8-cpi-low-Rafd090_16_Caucasian_female_neutral_frontal.jpg,0,18,18,2,,,,,,,104.53704749999451,104.53704749999451,1,[0.00048719999904278666],[0.9925529000029201],105.53987870000128,105.53987870000128,106.03778149999562,0.4794889999902807,-38.51851851851852,0.48068019999482203,[0.5185185185185185],[-0.42314814814814816],[1],[0],[0],[0.45263689999410417],['image'],1.5000012353993952e-05,105.53987870000128,105.53987870000128,,,VYV,001,2023-04-16_21h41.58.414,Human_uncanny,2022.2.5,60.22753964380267,
Human,BSF,Stimuli For Psychopy/Human/matched-Rafd090_19_Caucasian_female_neutral_frontal.jpg,matched-Rafd090_19_Caucasian_female_neutral_frontal.jpg,0,19,19,34,,,,,,,107.9693219000037,107.9693219000037,1,[0.00042949999624397606],[0.9427720000094268],108.973161300004,108.973161300004,109.5375561999972,0.5472996000025887,32.22222222222223,0.5463186999986647,[0.46296296296296297],[-0.41574074074074074],[1],[0],[0],[0.6338482999999542],['image'],3.640000068116933e-05,108.973161300004,108.973161300004,,,VYV,001,2023-04-16_21h41.58.414,Human_uncanny,2022.2.5,60.22753964380267,
Human,LSF,Stimuli For Psychopy/Human/matched-8-cpi-low-Rafd090_18_Caucasian_female_neutral_frontal.jpg,matched-8-cpi-low-Rafd090_18_Caucasian_female_neutral_frontal.jpg,0,20,20,3,,,,,,,111.67318810000143,111.67318810000143,1,[0.009454600003664382],[1.0097149000066565],112.6731099000026,112.6731099000026,113.23746439999377,0.5634159000037471,-46.851851851851855,0.5452952000050573,[0.43703703703703706],[-0.43796296296296294],[1],[0],[0],[0.4169849999889266],['image'],1.3700002455152571e-05,112.6731099000026,112.6731099000026,,,VYV,001,2023-04-16_21h41.58.414,Human_uncanny,2022.2.5,60.22753964380267,
Human,HSF,Stimuli For Psychopy/Human/matched-32-cpi-low-Rafd090_31_Caucasian_female_neutral_frontal.jpg,matched-32-cpi-low-Rafd090_31_Caucasian_female_neutral_frontal.jpg,0,21,21,25,,,,,,,115.13573769999493,115.13573769999493,1,[0.00044270000944379717],[0.990427600001567],116.15400329999102,116.15400329999102,116.65416330000153,0.49626549999811687,-26.29629629629629,0.49934849998680875,[0.48518518518518516],[-0.462037037037037],[1],[0],[0],[0.41766869999992196],['image'],2.7999994927085936e-05,116.13579079999181,116.13579079999181,,,VYV,001,2023-04-16_21h41.58.414,Human_uncanny,2022.2.5,60.22753964380267,
Human,BSF,Stimuli For Psychopy/Human/matched-Rafd090_22_Caucasian_female_neutral_frontal.jpg,matched-Rafd090_22_Caucasian_female_neutral_frontal.jpg,0,22,22,35,,,,,,,118.55639129999327,118.55639129999327,1,[0.00035280000884085894],[0.9971738000022015],119.55637199999182,119.55637199999182,120.47063480000361,0.897944299998926,38.888888888888886,0.8972234999964712,[0.44074074074074077],[-0.46111111111111114],[1],[0],[0],[0.5167519000096945],['image'],1.3500000932253897e-05,119.55637199999182,119.55637199999182,,,VYV,001,2023-04-16_21h41.58.414,Human_uncanny,2022.2.5,60.22753964380267,
Human,HSF,Stimuli For Psychopy/Human/matched-32-cpi-low-Rafd090_28_Caucasian_male_neutral_frontal.jpg,matched-32-cpi-low-Rafd090_28_Caucasian_male_neutral_frontal.jpg,0,23,23,23,,,,,,,122.47034240000357,122.47034240000357,1,[0.00043009998626075685],[0.9900790999963647],123.48730009999417,123.48730009999417,124.12054519999947,0.6317454000090947,-63.14814814814815,0.6324518000037642,[0.4564814814814815],[-0.4083333333333333],[1],[0],[0],[0.5658774999901652],['image'],1.4500008546747267e-05,123.470794199995,123.470794199995,,,VYV,001,2023-04-16_21h41.58.414,Human_uncanny,2022.2.5,60.22753964380267,
Human,BSF,Stimuli For Psychopy/Human/matched-Rafd090_01_Caucasian_female_neutral_frontal.jpg,matched-Rafd090_01_Caucasian_female_neutral_frontal.jpg,0,24,24,30,,,,,,,126.17206149999402,126.17206149999402,1,[0.0009232000011252239],[0.9905243999965023],127.17074869999487,127.17074869999487,127.80418789999385,0.6160262000048533,75.92592592592592,0.6105165000044508,[0.5],[-0.4212962962962963],[1],[0],[0],[0.4152095999888843],['image'],1.340000017080456e-05,127.17074869999487,127.17074869999487,,,VYV,001,2023-04-16_21h41.58.414,Human_uncanny,2022.2.5,60.22753964380267,
Human,BSF,Stimuli For Psychopy/Human/matched-Rafd090_28_Caucasian_male_neutral_frontal.jpg,matched-Rafd090_28_Caucasian_male_neutral_frontal.jpg,0,25,25,38,,,,,,,129.7018509999907,129.7018509999907,2,"[0.0006582999922102317, 0.9932960000005551]","[0.9770209999987856, 0.9932991999958176]",130.70668809999188,130.70668809999188,131.15374199999496,0.43322489999991376,42.96296296296296,0.4289322999975411,[0.44722222222222224],[-0.4203703703703704],[1],[0],[0],[0.44891289999941364],['image'],1.7099999240599573e-05,130.70668809999188,130.70668809999188,,,VYV,001,2023-04-16_21h41.58.414,Human_uncanny,2022.2.5,60.22753964380267,
Human,LSF,Stimuli For Psychopy/Human/matched-8-cpi-low-Rafd090_37_Caucasian_female_neutral_frontal.jpg,matched-8-cpi-low-Rafd090_37_Caucasian_female_neutral_frontal.jpg,0,26,26,14,,,,,,,133.08592329999374,133.08592329999374,1,[0.0003711000026669353],[0.9923873999941861],134.08927749999566,134.08927749999566,134.70381510000152,0.5979864999972051,-61.48148148148148,0.5971813999931328,[0.39166666666666666],[-0.4324074074074074],[1],[0],[0],[0.4184811000013724],['image'],1.3500000932253897e-05,134.08927749999566,134.08927749999566,,,VYV,001,2023-04-16_21h41.58.414,Human_uncanny,2022.2.5,60.22753964380267,
Human,HSF,Stimuli For Psychopy/Human/matched-32-cpi-low-Rafd090_37_Caucasian_female_neutral_frontal.jpg,matched-32-cpi-low-Rafd090_37_Caucasian_female_neutral_frontal.jpg,0,27,27,29,,,,,,,136.60211169999093,136.60211169999093,1,[0.0005845999985467643],[0.9930429999949411],137.60573539999314,137.60573539999314,138.10388480000256,0.48156440000457224,-31.111111111111114,0.4809535000094911,[0.43703703703703706],[-0.41574074074074074],[1],[0],[0],[0.36736109999765176],['image'],1.4200006262399256e-05,137.60573539999314,137.60573539999314,,,VYV,001,2023-04-16_21h41.58.414,Human_uncanny,2022.2.5,60.22753964380267,
Human,LSF,Stimuli For Psychopy/Human/matched-8-cpi-low-Rafd090_26_Caucasian_female_neutral_frontal.jpg,matched-8-cpi-low-Rafd090_26_Caucasian_female_neutral_frontal.jpg,0,28,28,7,,,,,,,139.9537161999906,139.9537161999906,1,[0.0006057999999029562],[0.9916831000009552],140.95582319999812,140.95582319999812,141.4201475000009,0.4475501999986591,-40.74074074074075,0.4471737999992911,"[0.49166666666666664, 0.475]","[-0.48518518518518516, -0.43796296296296294]","[1, 1]","[0, 0]","[0, 0]","[0.38382370000181254, 0.7670644999889191]",['image'],1.2099990271963179e-05,140.95582319999812,140.95582319999812,,,VYV,001,2023-04-16_21h41.58.414,Human_uncanny,2022.2.5,60.22753964380267,
Human,LSF,Stimuli For Psychopy/Human/matched-8-cpi-low-Rafd090_36_Caucasian_male_neutral_frontal.jpg,matched-8-cpi-low-Rafd090_36_Caucasian_male_neutral_frontal.jpg,0,29,29,13,,,,,,,143.66820459999144,143.66820459999144,1,[0.0004859000036958605],[0.9925922000111314],144.67232379999768,144.67232379999768,145.5033831000037,0.8149993999977596,-61.85185185185185,0.8139056000072742,[0.39814814814814814],[-0.4111111111111111],[1],[0],[0],[0.4502854999882402],['image'],1.3199998647905886e-05,144.67232379999768,144.67232379999768,,,VYV,001,2023-04-16_21h41.58.414,Human_uncanny,2022.2.5,60.22753964380267,
Human,LSF,Stimuli For Psychopy/Human/matched-8-cpi-low-Rafd090_30_Caucasian_male_neutral_frontal.jpg,matched-8-cpi-low-Rafd090_30_Caucasian_male_neutral_frontal.jpg,0,30,30,9,,,,,,,147.43483959999867,147.43483959999867,2,"[0.0003980000037699938, 0.359874600006151]","[0.3427360000059707, 0.9929831000044942]",148.4348139999929,148.4348139999929,149.2535435000027,0.7986049000028288,-79.81481481481481,0.7971279999910621,[0.41944444444444445],[-0.44537037037037036],[1],[0],[0],[0.4170263999985764],['image'],1.3900003978051245e-05,148.4348139999929,148.4348139999929,,,VYV,001,2023-04-16_21h41.58.414,Human_uncanny,2022.2.5,60.22753964380267,
Human,HSF,Stimuli For Psychopy/Human/matched-32-cpi-low-Rafd090_24_Caucasian_male_neutral_frontal.jpg,matched-32-cpi-low-Rafd090_24_Caucasian_male_neutral_frontal.jpg,0,31,31,21,,,,,,,151.15319969999837,151.15319969999837,1,[0.00037259999953676015],[0.9895586999919033],152.16831890000321,152.16831890000321,152.7184000999987,0.5473725000047125,-63.70370370370371,0.5490911999950185,[0.39351851851851855],[-0.4083333333333333],[1],[0],[0],[0.5657806000090204],['image'],1.4999997802078724e-05,152.1533070000005,152.1533070000005,,,VYV,001,2023-04-16_21h41.58.414,Human_uncanny,2022.2.5,60.22753964380267,
Human,LSF,Stimuli For Psychopy/Human/matched-8-cpi-low-Rafd090_22_Caucasian_female_neutral_frontal.jpg,matched-8-cpi-low-Rafd090_22_Caucasian_female_neutral_frontal.jpg,0,32,32,5,,,,,,,154.76972519999254,154.76972519999254,2,"[0.0005329999985406175, 0.9266350999969291]","[0.7760257000045385, 0.9929915999964578]",155.77210970000306,155.77210970000306,156.16996849999123,0.3821543000085512,-47.40740740740741,0.37867479999840725,[0.49074074074074076],[-0.40925925925925927],[1],[0],[0],[0.5501698000007309],['image'],1.550000160932541e-05,155.77210970000306,155.77210970000306,,,VYV,001,2023-04-16_21h41.58.414,Human_uncanny,2022.2.5,60.22753964380267,
Human,BSF,Stimuli For Psychopy/Human/matched-Rafd090_30_Caucasian_male_neutral_frontal.jpg,matched-Rafd090_30_Caucasian_male_neutral_frontal.jpg,0,33,33,39,,,,,,,158.20144170000276,158.20144170000276,2,"[0.00045510000200010836, 0.9755129999975907]","[0.9589889000053518, 0.9927974000020185]",159.20516620000126,159.20516620000126,159.80311409999558,0.5815238999930443,32.59259259259261,0.582790100001148,[0.4759259259259259],[-0.38981481481481484],[1],[0],[0],[0.48357209999812767],['image'],1.2600008631125093e-05,159.20516620000126,159.20516620000126,,,VYV,001,2023-04-16_21h41.58.414,Human_uncanny,2022.2.5,60.22753964380267,
Human,LSF,Stimuli For Psychopy/Human/matched-8-cpi-low-Rafd090_24_Caucasian_male_neutral_frontal.jpg,matched-8-cpi-low-Rafd090_24_Caucasian_male_neutral_frontal.jpg,0,34,34,6,,,,,,,161.76888269999472,161.76888269999472,1,[0.0003896999987773597],[0.9928424999961862],162.77189829999406,162.77189829999406,163.4031801999954,0.6134987000114052,-58.88888888888889,0.6139351000019815,[0.4666666666666667],[-0.45555555555555555],[1],[0],[0],[0.38509489998978097],['image'],1.2599994079209864e-05,162.77189829999406,162.77189829999406,,,VYV,001,2023-04-16_21h41.58.414,Human_uncanny,2022.2.5,60.22753964380267,
Human,HSF,Stimuli For Psychopy/Human/matched-32-cpi-low-Rafd090_30_Caucasian_male_neutral_frontal.jpg,matched-32-cpi-low-Rafd090_30_Caucasian_male_neutral_frontal.jpg,0,35,35,24,,,,,,,165.26884350000182,165.26884350000182,1,[0.000415000002249144],[0.9932473999942886],166.2715079000045,166.2715079000045,166.93628629999876,0.6483231000020169,-34.44444444444444,0.6469300000026124,[0.43425925925925923],[-0.4027777777777778],[1],[0],[0],[0.43356649999623187],['image'],1.2400007108226418e-05,166.2715079000045,166.2715079000045,,,VYV,001,2023-04-16_21h41.58.414,Human_uncanny,2022.2.5,60.22753964380267,
Human,HSF,Stimuli For Psychopy/Human/matched-32-cpi-low-Rafd090_12_Caucasian_female_neutral_frontal.jpg,matched-32-cpi-low-Rafd090_12_Caucasian_female_neutral_frontal.jpg,0,36,36,16,,,,,,,168.85120829999505,168.85120829999505,1,[0.0003789000038523227],[0.9885474000038812],169.86794509999163,169.86794509999163,170.3695899000013,0.4982653000042774,-27.592592592592595,0.4995212000067113,[0.4527777777777778],[-0.4203703703703704],[1],[0],[0],[0.4833597999968333],['image'],1.7300000763498247e-05,169.85293900000397,169.85293900000397,,,VYV,001,2023-04-16_21h41.58.414,Human_uncanny,2022.2.5,60.22753964380267,
Human,HSF,Stimuli For Psychopy/Human/matched-32-cpi-low-Rafd090_26_Caucasian_female_neutral_frontal.jpg,matched-32-cpi-low-Rafd090_26_Caucasian_female_neutral_frontal.jpg,0,37,37,22,,,,,,,172.33553909999318,172.33553909999318,3,"[0.00037739999243058264, 0.39266959999804385, 0.5758018999913475]","[0.29224989999784157, 0.4592809000023408, 0.9891484999970999]",173.35111789999064,173.35111789999064,174.05294310000318,0.6977096000046004,-26.666666666666657,0.6990994000079809,[0.5074074074074074],[-0.41574074074074074],[1],[0],[0],[0.5839872999931686],['image'],1.8699996871873736e-05,173.33625159999065,173.33625159999065,,,VYV,001,2023-04-16_21h41.58.414,Human_uncanny,2022.2.5,60.22753964380267,
Human,HSF,Stimuli For Psychopy/Human/matched-32-cpi-low-Rafd090_16_Caucasian_female_neutral_frontal.jpg,matched-32-cpi-low-Rafd090_16_Caucasian_female_neutral_frontal.jpg,0,38,38,17,,,,,,,176.12160149999545,176.12160149999545,1,[0.000447600003099069],[0.9966521000023931],177.11738429999969,177.11738429999969,178.33606099999452,1.1977909999986878,-37.03703703703704,2.249108600008185,"[-0.18518518518518517, 0.4388888888888889]","[-0.08981481481481482, -0.425]","[1, 1]","[0, 0]","[0, 0]","[0.9859950000100071, 1.5190989000111585]",['image'],1.2800010154023767e-05,177.11738429999969,177.11738429999969,,,VYV,001,2023-04-16_21h41.58.414,Human_uncanny,2022.2.5,60.22753964380267,
Human,HSF,Stimuli For Psychopy/Human/matched-32-cpi-low-Rafd090_22_Caucasian_female_neutral_frontal.jpg,matched-32-cpi-low-Rafd090_22_Caucasian_female_neutral_frontal.jpg,0,39,39,20,,,,,,,181.35491270000057,181.35491270000057,1,[0.009222099994076416],[1.0056507999979658],182.3692030999955,182.3692030999955,183.06922499999928,0.7131477000075392,-27.222222222222214,0.6846179999993183,[0.42777777777777776],[-0.40370370370370373],[1],[0],[0],[0.4690446000022348],['image'],1.3100012438371778e-05,,,,,VYV,001,2023-04-16_21h41.58.414,Human_uncanny,2022.2.5,60.22753964380267,
Human,HSF,Stimuli For Psychopy/Human/matched-32-cpi-low-Rafd090_19_Caucasian_female_neutral_frontal.jpg,matched-32-cpi-low-Rafd090_19_Caucasian_female_neutral_frontal.jpg,0,40,40,19,,,,,,,185.03818350000074,185.03818350000074,1,[0.009251499999663793],[1.0093760000017937],186.03792539999995,186.03792539999995,186.80264789999637,0.7626813000097172,-30.740740740740733,0.7469374000065727,[0.48148148148148145],[-0.41203703703703703],[1],[0],[0],[0.4502842000074452],['image'],1.3499986380338669e-05,186.03792539999995,186.03792539999995,,,VYV,001,2023-04-16_21h41.58.414,Human_uncanny,2022.2.5,60.22753964380267,
Human,LSF,Stimuli For Psychopy/Human/matched-8-cpi-low-Rafd090_31_Caucasian_female_neutral_frontal.jpg,matched-8-cpi-low-Rafd090_31_Caucasian_female_neutral_frontal.jpg,0,41,41,10,,,,,,,188.73640979999618,188.73640979999618,1,[0.0004955000040354207],[0.909103199999663],189.73799759999383,189.73799759999383,190.30236410000362,0.5467018999916036,-61.66666666666667,0.5472386000037659,[0.5342592592592592],[-0.42777777777777776],[1],[0],[0],[0.5019613000040408],['image'],1.3599987141788006e-05,189.73799759999383,189.73799759999383,,,VYV,001,2023-04-16_21h41.58.414,Human_uncanny,2022.2.5,60.22753964380267,
Human,LSF,Stimuli For Psychopy/Human/matched-8-cpi-low-Rafd090_12_Caucasian_female_neutral_frontal.jpg,matched-8-cpi-low-Rafd090_12_Caucasian_female_neutral_frontal.jpg,0,42,42,1,,,,,,,192.28428249999706,192.28428249999706,1,[0.0005227000074228272],[0.8590188000089256],193.28419869999925,193.28419869999925,193.78580359999614,0.480002099997364,-68.88888888888889,0.4802287000056822,[0.46111111111111114],[-0.40555555555555556],[1],[0],[0],[0.6017415000096662],['image'],1.4300007023848593e-05,193.28419869999925,193.28419869999925,,,VYV,001,2023-04-16_21h41.58.414,Human_uncanny,2022.2.5,60.22753964380267,
Human,HSF,Stimuli For Psychopy/Human/matched-32-cpi-low-Rafd090_32_Caucasian_female_neutral_frontal.jpg,matched-32-cpi-low-Rafd090_32_Caucasian_female_neutral_frontal.jpg,0,43,43,26,,,,,,,195.86726640000416,195.86726640000416,1,[0.00036190000537317246],[0.909467700010282],196.87097200000426,196.87097200000426,197.40227170000435,0.5148087999987183,-43.51851851851851,0.5133746000065003,[0.6138888888888889],[-0.4305555555555556],[1],[0],[0],[0.38372769999841694],['image'],1.6699996194802225e-05,196.87097200000426,196.87097200000426,,,VYV,001,2023-04-16_21h41.58.414,Human_uncanny,2022.2.5,60.22753964380267,
Human,LSF,Stimuli For Psychopy/Human/matched-8-cpi-low-Rafd090_28_Caucasian_male_neutral_frontal.jpg,matched-8-cpi-low-Rafd090_28_Caucasian_male_neutral_frontal.jpg,0,44,44,8,,,,,,,199.26855979999527,199.26855979999527,1,[0.0003910999948857352],[0.758890800003428],200.27106299999286,200.27106299999286,201.48552279999421,1.1967492999974638,-75.37037037037037,1.1956598999968264,[0.4675925925925926],[-0.3962962962962963],[1],[0],[0],[0.5353375000122469],['image'],1.2699994840659201e-05,200.27106299999286,200.27106299999286,,,VYV,001,2023-04-16_21h41.58.414,Human_uncanny,2022.2.5,60.22753964380267,
,,,,,,,,,,,,,,,,,,,,,,,,,,,,,,,,,,,0.00015189999248832464,1.000144099991303,,,,,,,
