Type,Spatial_Frequency,filepath,file_name,human_trials.thisRepN,human_trials.thisTrialN,human_trials.thisN,human_trials.thisIndex,instruction.started,key_resp.started,key_resp.keys,key_resp.rt,etRecord.started,etRecord.stopped,Human_image.started,roi.started,roi.numLooks,roi.timesOn,roi.timesOff,Likebility_slider_3.started,ratingText.started,image.started,mouse.started,Likebility_slider_3.response,Likebility_slider_3.rt,mouse.x,mouse.y,mouse.leftButton,mouse.midButton,mouse.rightButton,mouse.time,mouse.clicked_name,ISI_2.started,Human_image.stopped,roi.stopped,etRecord_2.started,etRecord_2.stopped,participant,session,date,expName,psychopyVersion,frameRate,
,,,,,,,,19.419358399987686,19.419358399987686,space,1.9757768000126816,,,,,,,,,,,,,,,,,,,,,,,,,,DAP,001,2023-04-17_21h40.03.735,Human_uncanny,2022.2.5,60.146179270370894,
Human,BSF,Stimuli For Psychopy/Human/matched-Rafd090_01_Caucasian_female_neutral_frontal.jpg,matched-Rafd090_01_Caucasian_female_neutral_frontal.jpg,0,0,0,30,,,,,1.4899997040629387e-05,1.4899997040629387e-05,22.420929099986097,22.420929099986097,0,,,23.434583899972495,23.434583899972495,28.74844519997714,5.329596900002798,-10.18518518518519,5.29645029999665,[0.3925925925925926],[-0.41944444444444445],[1],[0],[0],[2.9690688000118826],['image'],1.37000170070678e-05,,,,,DAP,001,2023-04-17_21h40.03.735,Human_uncanny,2022.2.5,60.146179270370894,
Human,BSF,Stimuli For Psychopy/Human/matched-Rafd090_24_Caucasian_male_neutral_frontal.jpg,matched-Rafd090_24_Caucasian_male_neutral_frontal.jpg,0,1,1,36,,,,,,,33.21864509998704,33.21864509998704,0,,,34.21852109997417,34.21852109997417,37.933058299997356,3.7103561999974772,26.111111111111114,3.697917100013001,[0.38796296296296295],[-0.4185185185185185],[1],[0],[0],[1.1350590999936685],['image'],1.3699987903237343e-05,34.21852109997417,34.21852109997417,,,DAP,001,2023-04-17_21h40.03.735,Human_uncanny,2022.2.5,60.146179270370894,
Human,BSF,Stimuli For Psychopy/Human/matched-Rafd090_37_Caucasian_female_neutral_frontal.jpg,matched-Rafd090_37_Caucasian_female_neutral_frontal.jpg,0,2,2,44,,,,,,,40.5509708999889,40.5509708999889,0,,,41.55172109999694,41.55172109999694,44.60175529998378,3.034362799982773,-39.81481481481482,3.0326050000148825,[0.44537037037037036],[-0.43148148148148147],[1],[0],[0],[1.2306612000102177],['image'],1.300001167692244e-05,41.55172109999694,41.55172109999694,,,DAP,001,2023-04-17_21h40.03.735,Human_uncanny,2022.2.5,60.146179270370894,
Human,BSF,Stimuli For Psychopy/Human/matched-Rafd090_30_Caucasian_male_neutral_frontal.jpg,matched-Rafd090_30_Caucasian_male_neutral_frontal.jpg,0,3,3,39,,,,,,,47.31619799998589,47.31619799998589,0,,,48.31817269997555,48.31817269997555,50.749702599976445,2.4151347000151873,17.037037037037024,2.4139174000010826,[0.3907407407407407],[-0.44814814814814813],[1],[0],[0],[0.7191289000038523],['image'],1.3899989426136017e-05,48.31817269997555,48.31817269997555,,,DAP,001,2023-04-17_21h40.03.735,Human_uncanny,2022.2.5,60.146179270370894,
Human,BSF,Stimuli For Psychopy/Human/matched-Rafd090_22_Caucasian_female_neutral_frontal.jpg,matched-Rafd090_22_Caucasian_female_neutral_frontal.jpg,0,4,4,35,,,,,,,52.96822779998183,52.96822779998183,0,,,53.98261109998566,53.98261109998566,55.56822159999865,1.5983688999840524,15.925925925925924,1.5695234999875538,[0.43703703703703706],[-0.4444444444444444],[1],[0],[0],[0.8981451999861747],['image'],1.6400008462369442e-05,,,,,DAP,001,2023-04-17_21h40.03.735,Human_uncanny,2022.2.5,60.146179270370894,
Human,LSF,Stimuli For Psychopy/Human/matched-8-cpi-low-Rafd090_18_Caucasian_female_neutral_frontal.jpg,matched-8-cpi-low-Rafd090_18_Caucasian_female_neutral_frontal.jpg,0,5,5,3,,,,,,,57.9661290999793,57.9661290999793,0,,,58.96818099997472,58.96818099997472,61.1657938999997,2.197772300016368,-56.481481481481474,2.9657931000110693,"[-0.21666666666666667, 0.4759259259259259]","[-0.09166666666666666, -0.4222222222222222]","[1, 1]","[0, 0]","[0, 0]","[0.38552640000125393, 1.4997234999900684]",['image'],1.3899989426136017e-05,58.96818099997472,58.96818099997472,,,DAP,001,2023-04-17_21h40.03.735,Human_uncanny,2022.2.5,60.146179270370894,
Human,LSF,Stimuli For Psychopy/Human/matched-8-cpi-low-Rafd090_12_Caucasian_female_neutral_frontal.jpg,matched-8-cpi-low-Rafd090_12_Caucasian_female_neutral_frontal.jpg,0,6,6,1,,,,,,,64.1487458999909,64.1487458999909,0,,,65.15126539999619,65.15126539999619,67.43250059999991,2.265138599992497,-43.51851851851851,2.263913100003265,[0.39537037037037037],[-0.4027777777777778],[1],[0],[0],[0.7523838999914005],['image'],1.2100004823878407e-05,65.15126539999619,65.15126539999619,,,DAP,001,2023-04-17_21h40.03.735,Human_uncanny,2022.2.5,60.146179270370894,
Human,BSF,Stimuli For Psychopy/Human/matched-Rafd090_31_Caucasian_female_neutral_frontal.jpg,matched-Rafd090_31_Caucasian_female_neutral_frontal.jpg,0,7,7,40,,,,,,,69.6845450999972,69.6845450999972,0,,,70.69879189998028,70.69879189998028,72.80120389998774,2.111230600014096,47.22222222222223,2.085790300014196,[0.4166666666666667],[-0.45185185185185184],[1],[0],[0],[1.0517496999818832],['image'],1.3899989426136017e-05,,,,,DAP,001,2023-04-17_21h40.03.735,Human_uncanny,2022.2.5,60.146179270370894,
Human,BSF,Stimuli For Psychopy/Human/matched-Rafd090_32_Caucasian_female_neutral_frontal.jpg,matched-Rafd090_32_Caucasian_female_neutral_frontal.jpg,0,8,8,41,,,,,,,75.33446849999018,75.33446849999018,0,,,76.33430329998373,76.33430329998373,77.38209959998494,1.0314737999869976,-18.33333333333333,2.031082100002095,"[-0.09166666666666666, 0.41574074074074074]","[-0.09722222222222222, -0.45555555555555555]","[1, 1]","[0, 0]","[0, 0]","[0.9335436999972444, 2.4337440000090282]",['image'],1.4599994756281376e-05,76.33430329998373,76.33430329998373,,,DAP,001,2023-04-17_21h40.03.735,Human_uncanny,2022.2.5,60.146179270370894,
Human,LSF,Stimuli For Psychopy/Human/matched-8-cpi-low-Rafd090_28_Caucasian_male_neutral_frontal.jpg,matched-8-cpi-low-Rafd090_28_Caucasian_male_neutral_frontal.jpg,0,9,9,8,,,,,,,81.29832199998782,81.29832199998782,0,,,82.30089049998787,82.30089049998787,83.21531289999257,0.8963891000021249,-59.44444444444444,0.8962889999966137,[0.575925925925926],[-0.43703703703703706],[1],[0],[0],[0.618258300004527],['image'],1.2800010154023767e-05,82.30089049998787,82.30089049998787,,,DAP,001,2023-04-17_21h40.03.735,Human_uncanny,2022.2.5,60.146179270370894,
Human,HSF,Stimuli For Psychopy/Human/matched-32-cpi-low-Rafd090_36_Caucasian_male_neutral_frontal.jpg,matched-32-cpi-low-Rafd090_36_Caucasian_male_neutral_frontal.jpg,0,10,10,28,,,,,,,85.31498269998701,85.31498269998701,0,,,86.31345699998201,86.31345699998201,87.61520599998767,1.2803493000101298,-29.444444444444457,3.5316105999809224,"[-0.08611111111111111, -0.14722222222222223, 0.47129629629629627]","[-0.053703703703703705, -0.13703703703703704, -0.4083333333333333]","[1, 1, 1]","[0, 0, 0]","[0, 0, 0]","[1.2871999999915715, 2.1352058999764267, 3.335031899972819]",['image'],1.2800010154023767e-05,86.31345699998201,86.31345699998201,,,DAP,001,2023-04-17_21h40.03.735,Human_uncanny,2022.2.5,60.146179270370894,
Human,HSF,Stimuli For Psychopy/Human/matched-32-cpi-low-Rafd090_19_Caucasian_female_neutral_frontal.jpg,matched-32-cpi-low-Rafd090_19_Caucasian_female_neutral_frontal.jpg,0,11,11,19,,,,,,,92.42978829998174,92.42978829998174,0,,,93.44674749998376,93.44674749998376,94.31502009998076,0.8650042999943253,-11.29629629629629,0.8663089000037871,[0.4787037037037037],[-0.4638888888888889],[1],[0],[0],[0.7833339999779128],['image'],2.269999822601676e-05,93.43174509998062,93.43174509998062,,,DAP,001,2023-04-17_21h40.03.735,Human_uncanny,2022.2.5,60.146179270370894,
Human,LSF,Stimuli For Psychopy/Human/matched-8-cpi-low-Rafd090_30_Caucasian_male_neutral_frontal.jpg,matched-8-cpi-low-Rafd090_30_Caucasian_male_neutral_frontal.jpg,0,12,12,9,,,,,,,96.58137989998795,96.58137989998795,0,,,97.58392449998064,97.58392449998064,98.73164919999545,1.1315325000032317,-42.77777777777778,1.1303026999812573,[0.4425925925925926],[-0.44722222222222224],[1],[0],[0],[0.5840265000006184],['image'],1.5099998563528061e-05,97.58392449998064,97.58392449998064,,,DAP,001,2023-04-17_21h40.03.735,Human_uncanny,2022.2.5,60.146179270370894,
Human,HSF,Stimuli For Psychopy/Human/matched-32-cpi-low-Rafd090_16_Caucasian_female_neutral_frontal.jpg,matched-32-cpi-low-Rafd090_16_Caucasian_female_neutral_frontal.jpg,0,13,13,17,,,,,,,100.79801659999066,100.79801659999066,0,,,101.80008159999852,101.80008159999852,103.90050329998485,2.0830639000050724,-33.33333333333333,4.047681800002465,"[-0.13518518518518519, -0.16666666666666666, 0.4537037037037037]","[-0.10648148148148148, -0.09351851851851851, -0.4444444444444444]","[1, 1, 1]","[0, 0, 0]","[0, 0, 0]","[0.48352650000015274, 1.864612000004854, 2.531350100005511]",['image'],1.580000389367342e-05,101.80008159999852,101.80008159999852,,,DAP,001,2023-04-17_21h40.03.735,Human_uncanny,2022.2.5,60.146179270370894,
Human,BSF,Stimuli For Psychopy/Human/matched-Rafd090_28_Caucasian_male_neutral_frontal.jpg,matched-Rafd090_28_Caucasian_male_neutral_frontal.jpg,0,14,14,38,,,,,,,107.91484269997454,107.91484269997454,0,,,108.91698879998876,108.91698879998876,113.0645780999912,4.131015200022375,-2.037037037037038,4.1303941999794915,[0.5212962962962963],[-0.4537037037037037],[1],[0],[0],[2.100872299983166],['image'],1.4499993994832039e-05,108.91698879998876,108.91698879998876,,,DAP,001,2023-04-17_21h40.03.735,Human_uncanny,2022.2.5,60.146179270370894,
Human,LSF,Stimuli For Psychopy/Human/matched-8-cpi-low-Rafd090_31_Caucasian_female_neutral_frontal.jpg,matched-8-cpi-low-Rafd090_31_Caucasian_female_neutral_frontal.jpg,0,15,15,10,,,,,,,116.66448969999328,116.66448969999328,0,,,117.66723979997914,117.66723979997914,118.64786459997413,0.9809266999945976,-82.4074074074074,0.9619435999775305,[0.46111111111111114],[-0.40185185185185185],[1],[0],[0],[1.0835497000080068],['image'],1.5199999324977398e-05,117.66723979997914,117.66723979997914,,,DAP,001,2023-04-17_21h40.03.735,Human_uncanny,2022.2.5,60.146179270370894,
Human,HSF,Stimuli For Psychopy/Human/matched-32-cpi-low-Rafd090_12_Caucasian_female_neutral_frontal.jpg,matched-32-cpi-low-Rafd090_12_Caucasian_female_neutral_frontal.jpg,0,16,16,16,,,,,,,121.21397549999529,121.21397549999529,0,,,122.23324579998734,122.23324579998734,123.09766369999852,0.8649940000032075,36.296296296296305,0.8670073999965098,[0.537962962962963],[-0.39537037037037037],[1],[0],[0],[1.0001498000056017],['image'],1.4599994756281376e-05,122.21658089998527,122.21658089998527,,,DAP,001,2023-04-17_21h40.03.735,Human_uncanny,2022.2.5,60.146179270370894,
Human,HSF,Stimuli For Psychopy/Human/matched-32-cpi-low-Rafd090_22_Caucasian_female_neutral_frontal.jpg,matched-32-cpi-low-Rafd090_22_Caucasian_female_neutral_frontal.jpg,0,17,17,20,,,,,,,125.58122639998328,125.58122639998328,0,,,126.58288989998982,126.58288989998982,127.48114159997203,0.8820647999818902,-37.03703703703704,0.8802431999938563,[0.4740740740740741],[-0.41574074074074074],[1],[0],[0],[0.4484445000125561],['image'],4.0300015825778246e-05,126.58288989998982,126.58288989998982,,,DAP,001,2023-04-17_21h40.03.735,Human_uncanny,2022.2.5,60.146179270370894,
Human,BSF,Stimuli For Psychopy/Human/matched-Rafd090_26_Caucasian_female_neutral_frontal.jpg,matched-Rafd090_26_Caucasian_female_neutral_frontal.jpg,0,18,18,37,,,,,,,129.41387919997214,129.41387919997214,0,,,130.41637569997692,130.41637569997692,131.09764979998,0.6648814000072889,41.296296296296305,0.6644209999940358,[0.5472222222222223],[-0.42685185185185187],[1],[0],[0],[0.6016122000000905],['image'],1.659998088143766e-05,130.41637569997692,130.41637569997692,,,DAP,001,2023-04-17_21h40.03.735,Human_uncanny,2022.2.5,60.146179270370894,
Human,HSF,Stimuli For Psychopy/Human/matched-32-cpi-low-Rafd090_32_Caucasian_female_neutral_frontal.jpg,matched-32-cpi-low-Rafd090_32_Caucasian_female_neutral_frontal.jpg,0,19,19,26,,,,,,,133.17889609999838,133.17889609999838,0,,,134.17921449997812,134.17921449997812,135.03085189999547,0.8315962000051513,-54.074074074074076,0.8308892000059132,[0.4064814814814815],[-0.4324074074074074],[1],[0],[0],[0.6335575999983121],['image'],1.4699995517730713e-05,134.17921449997812,134.17921449997812,,,DAP,001,2023-04-17_21h40.03.735,Human_uncanny,2022.2.5,60.146179270370894,
Human,LSF,Stimuli For Psychopy/Human/matched-8-cpi-low-Rafd090_33_Caucasian_male_neutral_frontal.jpg,matched-8-cpi-low-Rafd090_33_Caucasian_male_neutral_frontal.jpg,0,20,20,12,,,,,,,137.14679239998804,137.14679239998804,0,,,138.14954389998456,138.14954389998456,140.11404359998414,1.948021099990001,-65.0,1.946994600002654,[0.5435185185185185],[-0.44537037037037036],[1],[0],[0],[0.8192286000121385],['image'],1.4200020814314485e-05,138.14954389998456,138.14954389998456,,,DAP,001,2023-04-17_21h40.03.735,Human_uncanny,2022.2.5,60.146179270370894,
Human,BSF,Stimuli For Psychopy/Human/matched-Rafd090_36_Caucasian_male_neutral_frontal.jpg,matched-Rafd090_36_Caucasian_male_neutral_frontal.jpg,0,21,21,43,,,,,,,142.43290279997746,142.43290279997746,0,,,143.44724409998162,143.44724409998162,144.88289879998774,1.4481330999988131,44.074074074074076,1.4167179000214674,[0.42314814814814816],[-0.42314814814814816],[1],[0],[0],[0.6168169000011403],['image'],1.6799982404336333e-05,,,,,DAP,001,2023-04-17_21h40.03.735,Human_uncanny,2022.2.5,60.146179270370894,
Human,BSF,Stimuli For Psychopy/Human/matched-Rafd090_16_Caucasian_female_neutral_frontal.jpg,matched-Rafd090_16_Caucasian_female_neutral_frontal.jpg,0,22,22,32,,,,,,,146.99945679999655,146.99945679999655,0,,,148.01372499999707,148.01372499999707,149.24710779997986,1.2444309999991674,55.0,1.216815099993255,[0.45092592592592595],[-0.4638888888888889],[1],[0],[0],[0.670651699998416],['image'],1.3200013199821115e-05,,,,,DAP,001,2023-04-17_21h40.03.735,Human_uncanny,2022.2.5,60.146179270370894,
Human,LSF,Stimuli For Psychopy/Human/matched-8-cpi-low-Rafd090_01_Caucasian_female_neutral_frontal.jpg,matched-8-cpi-low-Rafd090_01_Caucasian_female_neutral_frontal.jpg,0,23,23,0,,,,,,,151.41598539997358,151.41598539997358,0,,,152.43036669999128,152.43036669999128,153.36361659999238,0.9459887999983039,-65.55555555555556,0.9170169999997597,[0.47962962962962963],[-0.45092592592592595],[1],[0],[0],[0.8691569999791682],['image'],1.4099990949034691e-05,,,,,DAP,001,2023-04-17_21h40.03.735,Human_uncanny,2022.2.5,60.146179270370894,
Human,HSF,Stimuli For Psychopy/Human/matched-32-cpi-low-Rafd090_01_Caucasian_female_neutral_frontal.jpg,matched-32-cpi-low-Rafd090_01_Caucasian_female_neutral_frontal.jpg,0,24,24,15,,,,,,,155.7326699999976,155.7326699999976,0,,,156.73224149999442,156.73224149999442,158.71181049998268,1.9794153999828268,-22.962962962962962,6.082862500014016,"[-0.06851851851851852, -0.11481481481481481, 0.4425925925925926]","[-0.09351851851851851, -0.08518518518518518, -0.4583333333333333]","[1, 1, 1]","[0, 0, 0]","[0, 0, 0]","[1.383692700008396, 4.002492500003427, 4.833597199991345]",['image'],1.5700003132224083e-05,156.73224149999442,156.73224149999442,,,DAP,001,2023-04-17_21h40.03.735,Human_uncanny,2022.2.5,60.146179270370894,
Human,LSF,Stimuli For Psychopy/Human/matched-8-cpi-low-Rafd090_16_Caucasian_female_neutral_frontal.jpg,matched-8-cpi-low-Rafd090_16_Caucasian_female_neutral_frontal.jpg,0,25,25,2,,,,,,,165.02996429998893,165.02996429998893,0,,,166.03238389999024,166.03238389999024,166.9300871999876,0.8814581999904476,-50.74074074074074,0.8808685999829322,[0.44907407407407407],[-0.3925925925925926],[1],[0],[0],[0.6835154999862425],['image'],1.6499980119988322e-05,166.03238389999024,166.03238389999024,,,DAP,001,2023-04-17_21h40.03.735,Human_uncanny,2022.2.5,60.146179270370894,
Human,HSF,Stimuli For Psychopy/Human/matched-32-cpi-low-Rafd090_24_Caucasian_male_neutral_frontal.jpg,matched-32-cpi-low-Rafd090_24_Caucasian_male_neutral_frontal.jpg,0,26,26,21,,,,,,,169.0968463999743,169.0968463999743,0,,,170.0987089999835,170.0987089999835,172.74885559998802,2.633990099973744,6.2962962962962905,4.0310585999977775,"[0.03148148148148148, 0.38981481481481484]","[-0.07314814814814814, -0.4222222222222222]","[1, 1]","[0, 0]","[0, 0]","[1.2812267999979667, 2.2508700999896973]",['image'],1.4499993994832039e-05,170.0987089999835,170.0987089999835,,,DAP,001,2023-04-17_21h40.03.735,Human_uncanny,2022.2.5,60.146179270370894,
Human,HSF,Stimuli For Psychopy/Human/matched-32-cpi-low-Rafd090_31_Caucasian_female_neutral_frontal.jpg,matched-32-cpi-low-Rafd090_31_Caucasian_female_neutral_frontal.jpg,0,27,27,25,,,,,,,176.4988351999782,176.4988351999782,0,,,177.49835909999092,177.49835909999092,180.56305249998695,3.060166000010213,6.666666666666671,3.0472731000045314,"[0.44166666666666665, 0.44537037037037036]","[-0.49907407407407406, -0.41203703703703703]","[1, 1]","[0, 0]","[0, 0]","[0.5352987000078429, 0.8852875999873504]",['image'],1.4299992471933365e-05,177.49835909999092,177.49835909999092,,,DAP,001,2023-04-17_21h40.03.735,Human_uncanny,2022.2.5,60.146179270370894,
Human,HSF,Stimuli For Psychopy/Human/matched-32-cpi-low-Rafd090_28_Caucasian_male_neutral_frontal.jpg,matched-32-cpi-low-Rafd090_28_Caucasian_male_neutral_frontal.jpg,0,28,28,23,,,,,,,182.9293856000004,182.9293856000004,0,,,183.93152629997348,183.93152629997348,185.0132092999993,1.064755100000184,-12.962962962962962,1.6148374000040349,"[-0.06481481481481481, 0.40370370370370373, 0.40925925925925927]","[-0.0787037037037037, -0.3768518518518518, -0.3925925925925926]","[1, 1, 1]","[0, 0, 0]","[0, 0, 0]","[0.4487305000075139, 1.085793799982639, 1.6357512999966275]",['image'],1.2900010915473104e-05,183.93152629997348,183.93152629997348,,,DAP,001,2023-04-17_21h40.03.735,Human_uncanny,2022.2.5,60.146179270370894,
Human,LSF,Stimuli For Psychopy/Human/matched-8-cpi-low-Rafd090_37_Caucasian_female_neutral_frontal.jpg,matched-8-cpi-low-Rafd090_37_Caucasian_female_neutral_frontal.jpg,0,29,29,14,,,,,,,188.14851339999586,188.14851339999586,0,,,189.16124769998714,189.16124769998714,190.14465349999955,0.9958952000015415,-75.18518518518519,0.965671600017231,[0.4759259259259259],[-0.4009259259259259],[1],[0],[0],[0.5689765000133775],['image'],1.7299986211583018e-05,,,,,DAP,001,2023-04-17_21h40.03.735,Human_uncanny,2022.2.5,60.146179270370894,
Human,BSF,Stimuli For Psychopy/Human/matched-Rafd090_12_Caucasian_female_neutral_frontal.jpg,matched-Rafd090_12_Caucasian_female_neutral_frontal.jpg,0,30,30,31,,,,,,,192.21510639999178,192.21510639999178,0,,,193.22969139998895,193.22969139998895,194.07939529998112,0.8627759999944828,79.44444444444443,0.8348251999996137,[0.47129629629629627],[-0.45555555555555555],[1],[0],[0],[1.6357710000011139],['image'],1.2899981811642647e-05,,,,,DAP,001,2023-04-17_21h40.03.735,Human_uncanny,2022.2.5,60.146179270370894,
Human,HSF,Stimuli For Psychopy/Human/matched-32-cpi-low-Rafd090_18_Caucasian_female_neutral_frontal.jpg,matched-32-cpi-low-Rafd090_18_Caucasian_female_neutral_frontal.jpg,0,31,31,18,,,,,,,197.21108489998733,197.21108489998733,0,,,198.21452529999078,198.21452529999078,200.04607959999703,1.8295643999881577,-41.85185185185185,1.8144445000216365,[0.5444444444444444],[-0.43333333333333335],[1],[0],[0],[0.552587099984521],['image'],1.3499986380338669e-05,198.21452529999078,198.21452529999078,,,DAP,001,2023-04-17_21h40.03.735,Human_uncanny,2022.2.5,60.146179270370894,
Human,BSF,Stimuli For Psychopy/Human/matched-Rafd090_33_Caucasian_male_neutral_frontal.jpg,matched-Rafd090_33_Caucasian_male_neutral_frontal.jpg,0,32,32,42,,,,,,,202.0983089999936,202.0983089999936,0,,,203.09813399999985,203.09813399999985,203.64596189997974,0.5462148000078741,45.55555555555554,1.7832949000003282,"[0.2740740740740741, 0.16574074074074074, 0.225, 0.49907407407407406]","[-0.07777777777777778, -0.08796296296296297, -0.07037037037037037, -0.47314814814814815]","[1, 1, 1, 1]","[0, 0, 0, 0]","[0, 0, 0, 0]","[0.2486831999849528, 0.6167123999912292, 1.1498285999987274, 2.35224829998333]",['image'],1.5400000847876072e-05,203.09813399999985,203.09813399999985,,,DAP,001,2023-04-17_21h40.03.735,Human_uncanny,2022.2.5,60.146179270370894,
Human,HSF,Stimuli For Psychopy/Human/matched-32-cpi-low-Rafd090_26_Caucasian_female_neutral_frontal.jpg,matched-32-cpi-low-Rafd090_26_Caucasian_female_neutral_frontal.jpg,0,33,33,22,,,,,,,207.4958678999974,207.4958678999974,0,,,208.49793079998926,208.49793079998926,209.2623794999963,0.7607314999913797,-46.666666666666664,1.07948449999094,"[-0.23333333333333334, 0.4666666666666667]","[-0.10925925925925926, -0.42407407407407405]","[1, 1]","[0, 0]","[0, 0]","[0.2187430000049062, 0.9183677999826614]",['image'],1.4299992471933365e-05,208.49793079998926,208.49793079998926,,,DAP,001,2023-04-17_21h40.03.735,Human_uncanny,2022.2.5,60.146179270370894,
Human,HSF,Stimuli For Psychopy/Human/matched-32-cpi-low-Rafd090_33_Caucasian_male_neutral_frontal.jpg,matched-32-cpi-low-Rafd090_33_Caucasian_male_neutral_frontal.jpg,0,34,34,27,,,,,,,211.6606221999973,211.6606221999973,0,,,212.66421349998564,212.66421349998564,214.34591419997741,1.6653023999824654,-28.888888888888886,1.6645007000188343,[0.4898148148148148],[-0.4166666666666667],[1],[0],[0],[0.5188799000170548],['image'],1.3399985618889332e-05,212.66421349998564,212.66421349998564,,,DAP,001,2023-04-17_21h40.03.735,Human_uncanny,2022.2.5,60.146179270370894,
Human,BSF,Stimuli For Psychopy/Human/matched-Rafd090_18_Caucasian_female_neutral_frontal.jpg,matched-Rafd090_18_Caucasian_female_neutral_frontal.jpg,0,35,35,33,,,,,,,216.36434249999002,216.36434249999002,0,,,217.37891489997855,217.37891489997855,218.44566119997762,1.0776712000078987,36.48148148148147,1.0504589999909513,[0.4824074074074074],[-0.4083333333333333],[1],[0],[0],[0.5693967000115663],['image'],1.5400000847876072e-05,,,,,DAP,001,2023-04-17_21h40.03.735,Human_uncanny,2022.2.5,60.146179270370894,
Human,LSF,Stimuli For Psychopy/Human/matched-8-cpi-low-Rafd090_19_Caucasian_female_neutral_frontal.jpg,matched-8-cpi-low-Rafd090_19_Caucasian_female_neutral_frontal.jpg,0,36,36,4,,,,,,,220.49767469998915,220.49767469998915,0,,,221.49762199999532,221.49762199999532,222.17887909998535,0.6637829999963287,-69.81481481481481,0.6637404999928549,[0.4759259259259259],[-0.3907407407407407],[1],[0],[0],[1.0504510000173468],['image'],1.3699987903237343e-05,221.49762199999532,221.49762199999532,,,DAP,001,2023-04-17_21h40.03.735,Human_uncanny,2022.2.5,60.146179270370894,
Human,LSF,Stimuli For Psychopy/Human/matched-8-cpi-low-Rafd090_22_Caucasian_female_neutral_frontal.jpg,matched-8-cpi-low-Rafd090_22_Caucasian_female_neutral_frontal.jpg,0,37,37,5,,,,,,,224.711705899972,224.711705899972,0,,,225.71436229997198,225.71436229997198,226.995385599992,1.2646988999913447,-48.51851851851852,1.2619570000097156,[0.42314814814814816],[-0.4324074074074074],[1],[0],[0],[0.6985859999840613],['image'],1.3199984095990658e-05,225.71436229997198,225.71436229997198,,,DAP,001,2023-04-17_21h40.03.735,Human_uncanny,2022.2.5,60.146179270370894,
Human,LSF,Stimuli For Psychopy/Human/matched-8-cpi-low-Rafd090_26_Caucasian_female_neutral_frontal.jpg,matched-8-cpi-low-Rafd090_26_Caucasian_female_neutral_frontal.jpg,0,38,38,7,,,,,,,229.17933039998752,229.17933039998752,0,,,230.18081459999667,230.18081459999667,231.44536649997463,1.2500895999837667,-69.25925925925925,1.2458256000245456,[0.524074074074074],[-0.40925925925925927],[1],[0],[0],[0.6006641999993008],['image'],1.580000389367342e-05,230.18081459999667,230.18081459999667,,,DAP,001,2023-04-17_21h40.03.735,Human_uncanny,2022.2.5,60.146179270370894,
Human,LSF,Stimuli For Psychopy/Human/matched-8-cpi-low-Rafd090_32_Caucasian_female_neutral_frontal.jpg,matched-8-cpi-low-Rafd090_32_Caucasian_female_neutral_frontal.jpg,0,39,39,11,,,,,,,233.52825019997545,233.52825019997545,0,,,234.53076679998776,234.53076679998776,235.9100803999754,1.3641158000100404,-56.851851851851855,1.3642823999980465,[0.44074074074074077],[-0.44907407407407407],[1],[0],[0],[0.6655613000039011],['image'],1.479999627918005e-05,234.53076679998776,234.53076679998776,,,DAP,001,2023-04-17_21h40.03.735,Human_uncanny,2022.2.5,60.146179270370894,
Human,BSF,Stimuli For Psychopy/Human/matched-Rafd090_19_Caucasian_female_neutral_frontal.jpg,matched-Rafd090_19_Caucasian_female_neutral_frontal.jpg,0,40,40,34,,,,,,,238.05983339998056,238.05983339998056,0,,,239.06397429999197,239.06397429999197,239.7117493999831,0.6323705000104383,42.96296296296296,0.631240999995498,[0.37037037037037035],[-0.38055555555555554],[1],[0],[0],[0.4838705000001937],['image'],2.300000051036477e-05,239.06397429999197,239.06397429999197,,,DAP,001,2023-04-17_21h40.03.735,Human_uncanny,2022.2.5,60.146179270370894,
Human,HSF,Stimuli For Psychopy/Human/matched-32-cpi-low-Rafd090_30_Caucasian_male_neutral_frontal.jpg,matched-32-cpi-low-Rafd090_30_Caucasian_male_neutral_frontal.jpg,0,41,41,24,,,,,,,241.6763974999776,241.6763974999776,0,,,242.6804801999824,242.6804801999824,244.02829539999948,1.3293023000005633,-37.77777777777778,1.3313587999728043,[0.5953703703703703],[-0.46574074074074073],[1],[0],[0],[0.5333959000126924],['image'],1.3200013199821115e-05,242.6804801999824,242.6804801999824,,,DAP,001,2023-04-17_21h40.03.735,Human_uncanny,2022.2.5,60.146179270370894,
Human,HSF,Stimuli For Psychopy/Human/matched-32-cpi-low-Rafd090_37_Caucasian_female_neutral_frontal.jpg,matched-32-cpi-low-Rafd090_37_Caucasian_female_neutral_frontal.jpg,0,42,42,29,,,,,,,246.04422789998353,246.04422789998353,0,,,247.0467463999812,247.0467463999812,247.92834249997395,0.8667290000012144,-47.777777777777786,0.8640924000064842,[0.4759259259259259],[-0.43796296296296294],[1],[0],[0],[0.6001734999881592],['image'],1.3800017768517137e-05,247.0467463999812,247.0467463999812,,,DAP,001,2023-04-17_21h40.03.735,Human_uncanny,2022.2.5,60.146179270370894,
Human,LSF,Stimuli For Psychopy/Human/matched-8-cpi-low-Rafd090_36_Caucasian_male_neutral_frontal.jpg,matched-8-cpi-low-Rafd090_36_Caucasian_male_neutral_frontal.jpg,0,43,43,13,,,,,,,250.0113308999862,250.0113308999862,0,,,251.0136599999969,251.0136599999969,251.46144609997282,0.42961670001386665,-77.77777777777777,0.43234229998779483,[0.43148148148148147],[-0.38425925925925924],[1],[0],[0],[0.48520470000221394],['image'],1.6200006939470768e-05,251.0136599999969,251.0136599999969,,,DAP,001,2023-04-17_21h40.03.735,Human_uncanny,2022.2.5,60.146179270370894,
Human,LSF,Stimuli For Psychopy/Human/matched-8-cpi-low-Rafd090_24_Caucasian_male_neutral_frontal.jpg,matched-8-cpi-low-Rafd090_24_Caucasian_male_neutral_frontal.jpg,0,44,44,6,,,,,,,253.4281720999861,253.4281720999861,0,,,254.43031329999212,254.43031329999212,255.12800109997625,0.6811213000037242,-66.2962962962963,0.6791824000247288,[0.45185185185185184],[-0.43703703703703706],[1],[0],[0],[0.6833591999893542],['image'],1.7000013031065464e-05,254.43031329999212,254.43031329999212,,,DAP,001,2023-04-17_21h40.03.735,Human_uncanny,2022.2.5,60.146179270370894,
,,,,,,,,,,,,,,,,,,,,,,,,,,,,,,,,,,,0.015101600001798943,1.0172057000163477,,,,,,,
