Type,Spatial_Frequency,filepath,file_name,robotic_trials.thisRepN,robotic_trials.thisTrialN,robotic_trials.thisN,robotic_trials.thisIndex,instruction.started,key_resp.started,key_resp.keys,key_resp.rt,etRecord.started,etRecord.stopped,Robotic__Stimuli.started,roi.started,Robotic__Stimuli.stopped,roi.stopped,roi.numLooks,roi.timesOn,roi.timesOff,M_H_likeness_slider.response,M_H_likeness_slider.rt,ISI_2.started,etRecord_2.started,etRecord_2.stopped,participant,session,date,expName,psychopyVersion,frameRate,
,,,,,,,,20.152316799998516,20.152316799998516,space,2.3219716000021435,,,,,,,,,,,,,,,UTS,001,2023-04-16_22h35.58.597,trial uncanny,2022.2.5,60.12961539540072,
Mechanical,LSF,Stimuli For Psychopy\Robotic\matched-8-cpi-low-c41.jpeg,matched-8-cpi-low-c41.jpeg,0,0,0,73,,,,,1.2100004823878407e-05,1.2100004823878407e-05,23.498507799988147,23.498507799988147,24.49778159998823,24.49778159998823,1,[0.0005644000048050657],[0.9906179999961751],10.370370370370368,1.7479197999928147,1.5600002370774746e-05,,,UTS,001,2023-04-16_22h35.58.597,trial uncanny,2022.2.5,60.12961539540072,
Humanoid,LSF,Stimuli For Psychopy\Robotic\matched-8-cpi-low-c72.jpeg,matched-8-cpi-low-c72.jpeg,0,1,1,25,,,,,,,28.449048599999514,28.449048599999514,29.463396399994963,29.463396399994963,1,[0.0004434000002220273],[1.0106577000115067],7.685185185185183,0.6330158000055235,1.3900003978051245e-05,,,UTS,001,2023-04-16_22h35.58.597,trial uncanny,2022.2.5,60.12961539540072,
Mechanical,HSF,Stimuli For Psychopy\Robotic\matched-32-cpi-low-c37.jpeg,matched-32-cpi-low-c37.jpeg,0,2,2,86,,,,,,,32.13227379998716,32.13227379998716,33.131962799991015,33.131962799991015,1,[0.0007540999940829352],[0.9962656999996398],1.7592592592592604,1.7975276000070153,1.239999255631119e-05,,,UTS,001,2023-04-16_22h35.58.597,trial uncanny,2022.2.5,60.12961539540072,
Mechanical,HSF,Stimuli For Psychopy\Robotic\matched-32-cpi-low-c16.jpeg,matched-32-cpi-low-c16.jpeg,0,3,3,79,,,,,,,36.965543899990735,36.965543899990735,,,1,[0.013518699997803196],[1.0111572000023443],2.870370370370373,1.0501463000109652,1.2599994079209864e-05,,,UTS,001,2023-04-16_22h35.58.597,trial uncanny,2022.2.5,60.12961539540072,
Mechanical,LSF,Stimuli For Psychopy\Robotic\matched-8-cpi-low-c38.jpeg,matched-8-cpi-low-c38.jpeg,0,4,4,72,,,,,,,41.18208089999098,41.18208089999098,42.19479509998928,42.19479509998928,1,[0.0005445999995572492],[1.010537000009208],9.259259259259261,0.5191506999981357,1.340000017080456e-05,,,UTS,001,2023-04-16_22h35.58.597,trial uncanny,2022.2.5,60.12961539540072,
Humanoid,BSF,Stimuli For Psychopy\Robotic\matched-c74.jpeg,matched-c74.jpeg,0,5,5,11,,,,,,,44.648640999992494,44.648640999992494,45.6630346999882,45.6630346999882,1,[0.00046790001215413213],[1.0103249000094365],12.037037037037035,1.402036200001021,1.309999788645655e-05,,,UTS,001,2023-04-16_22h35.58.597,trial uncanny,2022.2.5,60.12961539540072,
Humanoid,BSF,Stimuli For Psychopy\Robotic\matched-c72.jpeg,matched-c72.jpeg,0,6,6,10,,,,,,,48.948704799986444,48.948704799986444,,,1,[0.0003490999952191487],[0.9942129999981262],24.444444444444446,0.41654569999082014,1.2300006346777081e-05,,,UTS,001,2023-04-16_22h35.58.597,trial uncanny,2022.2.5,60.12961539540072,
Humanoid,BSF,Stimuli For Psychopy\Robotic\matched-c79.jpeg,matched-c79.jpeg,0,7,7,14,,,,,,,52.281901999987895,52.281901999987895,53.29465889999119,53.29465889999119,1,[0.00044889999844599515],[1.0114275999949314],51.85185185185185,0.049733799998648465,1.649999467190355e-05,,,UTS,001,2023-04-16_22h35.58.597,trial uncanny,2022.2.5,60.12961539540072,
Humanoid,HSF,Stimuli For Psychopy\Robotic\matched-32-cpi-low-c48.jpeg,matched-32-cpi-low-c48.jpeg,0,8,8,30,,,,,,,55.44838989998971,55.44838989998971,56.44796039999346,56.44796039999346,1,[0.46230840000498574],[0.9960095999995247],1.2962962962962954,2.032713099993998,1.550000160932541e-05,,,UTS,001,2023-04-16_22h35.58.597,trial uncanny,2022.2.5,60.12961539540072,
Humanoid,HSF,Stimuli For Psychopy\Robotic\matched-32-cpi-low-c76.jpeg,matched-32-cpi-low-c76.jpeg,0,9,9,42,,,,,,,60.51500079999096,60.51500079999096,,,1,[0.013228399999206886],[1.0107734999910463],50.09259259259259,0.13475879999168683,1.2499993317760527e-05,,,UTS,001,2023-04-16_22h35.58.597,trial uncanny,2022.2.5,60.12961539540072,
Mechanical,BSF,Stimuli For Psychopy\Robotic\matched-c14.jpeg,matched-c14.jpeg,0,10,10,48,,,,,,,63.73163999999815,63.73163999999815,64.74597509999876,64.74597509999876,1,[0.0004228999896440655],[0.8943493999977363],3.7962962962962976,0.5827195000019856,1.3600001693703234e-05,,,UTS,001,2023-04-16_22h35.58.597,trial uncanny,2022.2.5,60.12961539540072,
Mechanical,HSF,Stimuli For Psychopy\Robotic\matched-32-cpi-low-c33.jpeg,matched-32-cpi-low-c33.jpeg,0,11,11,83,,,,,,,67.24826169999142,67.24826169999142,68.26252759998897,68.26252759998897,1,[0.0003811000060522929],[1.010935900005279],10.185185185185187,0.6314180000044871,1.3299999409355223e-05,,,UTS,001,2023-04-16_22h35.58.597,trial uncanny,2022.2.5,60.12961539540072,
Mechanical,LSF,Stimuli For Psychopy\Robotic\matched-8-cpi-low-c35.jpeg,matched-8-cpi-low-c35.jpeg,0,12,12,69,,,,,,,71.24807449999207,71.24807449999207,72.24791459999688,72.24791459999688,1,[0.0003423000016482547],[0.9965796000033151],1.2962962962962954,1.0307990000001155,1.340000017080456e-05,,,UTS,001,2023-04-16_22h35.58.597,trial uncanny,2022.2.5,60.12961539540072,
Mechanical,BSF,Stimuli For Psychopy\Robotic\matched-c17.jpeg,matched-c17.jpeg,0,13,13,50,,,,,,,76.01491309999255,76.01491309999255,77.01495109999087,77.01495109999087,1,[0.01309360000595916],[1.01280090000364],0.8333333333333359,1.4478364000096917,1.550000160932541e-05,,,UTS,001,2023-04-16_22h35.58.597,trial uncanny,2022.2.5,60.12961539540072,
Mechanical,BSF,Stimuli For Psychopy\Robotic\matched-c37.jpeg,matched-c37.jpeg,0,14,14,56,,,,,,,80.814627499989,80.814627499989,,,1,[0.013358399999560788],[1.0111737999977777],0.3703703703703709,1.7688129000016488,1.2300006346777081e-05,,,UTS,001,2023-04-16_22h35.58.597,trial uncanny,2022.2.5,60.12961539540072,
Mechanical,BSF,Stimuli For Psychopy\Robotic\matched-c36.jpeg,matched-c36.jpeg,0,15,15,55,,,,,,,85.66466599999694,85.66466599999694,,,1,[0.013240300002507865],[1.0110413000074914],1.2962962962962954,0.9696245000086492,1.309999788645655e-05,,,UTS,001,2023-04-16_22h35.58.597,trial uncanny,2022.2.5,60.12961539540072,
Mechanical,LSF,Stimuli For Psychopy\Robotic\matched-8-cpi-low-c17.jpeg,matched-8-cpi-low-c17.jpeg,0,16,16,65,,,,,,,89.8310943999968,89.8310943999968,,,1,[0.013492600002791733],[1.0112344999943161],2.500000000000002,0.8020059999980731,1.2199991033412516e-05,,,UTS,001,2023-04-16_22h35.58.597,trial uncanny,2022.2.5,60.12961539540072,
Mechanical,HSF,Stimuli For Psychopy\Robotic\matched-32-cpi-low-c41.jpeg,matched-32-cpi-low-c41.jpeg,0,17,17,88,,,,,,,93.91426839999622,93.91426839999622,94.9287226999877,94.9287226999877,1,[0.00041349999082740396],[0.91220209999301],0.7407407407407418,0.8477792999910889,1.410000550094992e-05,,,UTS,001,2023-04-16_22h35.58.597,trial uncanny,2022.2.5,60.12961539540072,
Humanoid,HSF,Stimuli For Psychopy\Robotic\matched-32-cpi-low-c79.jpeg,matched-32-cpi-low-c79.jpeg,0,18,18,44,,,,,,,97.96406739999657,97.96406739999657,98.97841309999058,98.97841309999058,1,[0.0004006000090157613],[1.0109235999989323],48.61111111111111,0.3984770000097342,1.3199998647905886e-05,,,UTS,001,2023-04-16_22h35.58.597,trial uncanny,2022.2.5,60.12961539540072,
Mechanical,BSF,Stimuli For Psychopy\Robotic\matched-c43.jpeg,Matched-c43.jpeg,0,19,19,51,,,,,,,101.36415899998974,101.36415899998974,102.3767794999876,102.3767794999876,1,[0.0004099000070709735],[1.0112102999992203],52.87037037037037,1.4491336999926716,1.2799995602108538e-05,,,UTS,001,2023-04-16_22h35.58.597,trial uncanny,2022.2.5,60.12961539540072,
Humanoid,LSF,Stimuli For Psychopy\Robotic\matched-8-cpi-low-c63.jpeg,matched-8-cpi-low-c63.jpeg,0,20,20,18,,,,,,,105.68074599999818,105.68074599999818,,,1,[0.01286110001092311],[1.0106760000053328],14.166666666666666,0.46789880000869744,1.2499993317760527e-05,,,UTS,001,2023-04-16_22h35.58.597,trial uncanny,2022.2.5,60.12961539540072,
Mechanical,LSF,Stimuli For Psychopy\Robotic\matched-8-cpi-low-c27.jpeg,matched-8-cpi-low-c27.jpeg,0,21,21,67,,,,,,,109.6139131999953,109.6139131999953,110.60979099999531,110.60979099999531,1,[0.00034729999606497586],[0.9962970000051428],11.203703703703704,0.46404859999893233,1.2899996363557875e-05,,,UTS,001,2023-04-16_22h35.58.597,trial uncanny,2022.2.5,60.12961539540072,
Mechanical,BSF,Stimuli For Psychopy\Robotic\matched-c11.jpeg,matched-c11.jpeg,0,22,22,46,,,,,,,113.29726409999421,113.29726409999421,114.31002589999116,114.31002589999116,1,[0.00039260000630747527],[1.0112140999990515],8.796296296296296,0.5326961999962805,1.3199998647905886e-05,,,UTS,001,2023-04-16_22h35.58.597,trial uncanny,2022.2.5,60.12961539540072,
Mechanical,BSF,Stimuli For Psychopy\Robotic\matched-c33.jpeg,matched-c33.jpeg,0,23,23,53,,,,,,,116.94346719999157,116.94346719999157,117.9449045999936,117.9449045999936,1,[0.00043319999531377107],[0.9946603999997023],7.777777777777778,0.8657959000120172,1.3200013199821115e-05,,,UTS,001,2023-04-16_22h35.58.597,trial uncanny,2022.2.5,60.12961539540072,
Humanoid,LSF,Stimuli For Psychopy\Robotic\matched-8-cpi-low-c58.jpeg,matched-8-cpi-low-c58.jpeg,0,24,24,16,,,,,,,120.69691980000061,120.69691980000061,121.71159489999991,121.71159489999991,1,[0.00037150000571273267],[1.0113573000126053],41.01851851851852,0.633092599993688,1.3900003978051245e-05,,,UTS,001,2023-04-16_22h35.58.597,trial uncanny,2022.2.5,60.12961539540072,
Humanoid,LSF,Stimuli For Psychopy\Robotic\matched-8-cpi-low-c64.jpeg,matched-8-cpi-low-c64.jpeg,0,25,25,19,,,,,,,124.26367659999232,124.26367659999232,125.27809139998863,125.27809139998863,1,[0.00034890000824816525],[1.0107087000069441],20.64814814814815,0.9476194000017131,1.6699996194802225e-05,,,UTS,001,2023-04-16_22h35.58.597,trial uncanny,2022.2.5,60.12961539540072,
Mechanical,LSF,Stimuli For Psychopy\Robotic\matched-8-cpi-low-c43.jpeg,matched-8-cpi-low-c43.jpeg,0,26,26,66,,,,,,,128.08025149999594,128.08025149999594,129.07989709998947,129.07989709998947,1,[0.0004474000015761703],[0.9964826999930665],22.962962962962962,0.6142789000004996,1.4499993994832039e-05,,,UTS,001,2023-04-16_22h35.58.597,trial uncanny,2022.2.5,60.12961539540072,
Mechanical,LSF,Stimuli For Psychopy\Robotic\matched-8-cpi-low-c16.jpeg,matched-8-cpi-low-c16.jpeg,0,27,27,64,,,,,,,131.78043469999102,131.78043469999102,132.78043519999483,132.78043519999483,1,[0.0005287999956635758],[0.996741099996143],4.629629629629628,1.5312079999857815,1.2400007108226418e-05,,,UTS,001,2023-04-16_22h35.58.597,trial uncanny,2022.2.5,60.12961539540072,
Humanoid,LSF,Stimuli For Psychopy\Robotic\matched-8-cpi-low-c61.jpeg,matched-8-cpi-low-c61.jpeg,0,28,28,17,,,,,,,136.19663319998654,136.19663319998654,,,1,[0.013353100002859719],[1.0093600999971386],42.31481481481482,1.68601160000253,1.3700002455152571e-05,,,UTS,001,2023-04-16_22h35.58.597,trial uncanny,2022.2.5,60.12961539540072,
Humanoid,LSF,Stimuli For Psychopy\Robotic\matched-8-cpi-low-c74.jpeg,matched-8-cpi-low-c74.jpeg,0,29,29,26,,,,,,,141.04661579999083,141.04661579999083,,,1,[0.01340489998983685],[1.0112318999890704],49.53703703703704,0.7317457000026479,1.2799995602108538e-05,,,UTS,001,2023-04-16_22h35.58.597,trial uncanny,2022.2.5,60.12961539540072,
Mechanical,HSF,Stimuli For Psychopy\Robotic\matched-32-cpi-low-c35.jpeg,matched-32-cpi-low-c35.jpeg,0,30,30,84,,,,,,,144.62994649999018,144.62994649999018,,,1,[0.013416900008451194],[1.0109988000040175],7.222222222222224,1.9545450000005076,1.200000406242907e-05,,,UTS,001,2023-04-16_22h35.58.597,trial uncanny,2022.2.5,60.12961539540072,
Mechanical,LSF,Stimuli For Psychopy\Robotic\matched-8-cpi-low-c37.jpeg,matched-8-cpi-low-c37.jpeg,0,31,31,71,,,,,,,149.44635589999962,149.44635589999962,,,1,[0.013088599996990524],[0.7776779999985592],3.2407407407407387,0.25197040000057314,1.2200005585327744e-05,,,UTS,001,2023-04-16_22h35.58.597,trial uncanny,2022.2.5,60.12961539540072,
Mechanical,LSF,Stimuli For Psychopy\Robotic\matched-8-cpi-low-c14.jpeg,matched-8-cpi-low-c14.jpeg,0,32,32,63,,,,,,,152.89622569999483,152.89622569999483,153.91080469998997,153.91080469998997,1,[0.0004434000002220273],[1.0106674999988172],13.425925925925924,0.5661653999995906,1.2500007869675756e-05,,,UTS,001,2023-04-16_22h35.58.597,trial uncanny,2022.2.5,60.12961539540072,
Humanoid,LSF,Stimuli For Psychopy\Robotic\matched-8-cpi-low-c65.jpeg,matched-8-cpi-low-c65.jpeg,0,33,33,20,,,,,,,156.5296132999938,156.5296132999938,157.54390889999922,157.54390889999922,1,[0.0004220000118948519],[1.0110444000019925],48.24074074074074,1.8687331000110134,1.4099990949034691e-05,,,UTS,001,2023-04-16_22h35.58.597,trial uncanny,2022.2.5,60.12961539540072,
Mechanical,HSF,Stimuli For Psychopy\Robotic\matched-32-cpi-low-c27.jpeg,matched-32-cpi-low-c27.jpeg,0,34,34,82,,,,,,,161.59399289998692,161.59399289998692,,,3,"[0.013478199995006435, 0.24621460000344086, 0.38180930000089575]","[0.029860599999665283, 0.36497209999652114, 0.4485084000043571]",25.0,0.7815737000055378,1.2299991794861853e-05,,,UTS,001,2023-04-16_22h35.58.597,trial uncanny,2022.2.5,60.12961539540072,
Mechanical,LSF,Stimuli For Psychopy\Robotic\matched-8-cpi-low-c10.jpeg,matched-8-cpi-low-c10.jpeg,0,35,35,60,,,,,,,165.3294070999982,165.3294070999982,166.32506959998864,166.32506959998864,2,"[0.0005477999948197976, 0.7962766999989981]","[0.7466165000078036, 0.9964822000038112]",0.462962962962965,1.564136300003156,1.2599994079209864e-05,,,UTS,001,2023-04-16_22h35.58.597,trial uncanny,2022.2.5,60.12961539540072,
Mechanical,HSF,Stimuli For Psychopy\Robotic\matched-32-cpi-low-c17.jpeg,matched-32-cpi-low-c17.jpeg,0,36,36,80,,,,,,,169.99598739999055,169.99598739999055,,,1,[0.013292799994815141],[1.0097093000076711],10.27777777777778,1.2989522000134457,1.2300006346777081e-05,,,UTS,001,2023-04-16_22h35.58.597,trial uncanny,2022.2.5,60.12961539540072,
Humanoid,BSF,Stimuli For Psychopy\Robotic\matched-c58.jpeg,matched-c58.jpeg,0,37,37,1,,,,,,,174.44648689999303,174.44648689999303,,,3,"[0.013549799987231381, 0.5097816999914357, 0.5780951999913668]","[0.44298549999075476, 0.5446770999988075, 1.0110476999980165]",20.64814814814815,0.45003750000614673,1.2699994840659201e-05,,,UTS,001,2023-04-16_22h35.58.597,trial uncanny,2022.2.5,60.12961539540072,
Mechanical,LSF,Stimuli For Psychopy\Robotic\matched-8-cpi-low-c36.jpeg,matched-8-cpi-low-c36.jpeg,0,38,38,70,,,,,,,178.22909159999108,178.22909159999108,179.2291542999883,179.2291542999883,2,"[0.013600000005681068, 0.6301710999978241]","[0.3303273000055924, 0.9806557999982033]",13.981481481481485,1.0304718999977922,1.2199991033412516e-05,,,UTS,001,2023-04-16_22h35.58.597,trial uncanny,2022.2.5,60.12961539540072,
Mechanical,BSF,Stimuli For Psychopy\Robotic\matched-c42.jpeg,matched-c42.jpeg,0,39,39,59,,,,,,,182.16240019998804,182.16240019998804,183.17673359999026,183.17673359999026,1,[0.0003825000021606684],[1.0112095000076806],12.592592592592593,1.3643812000082107,1.2600008631125093e-05,,,UTS,001,2023-04-16_22h35.58.597,trial uncanny,2022.2.5,60.12961539540072,
Humanoid,BSF,Stimuli For Psychopy\Robotic\matched-c61.jpeg,matched-c61.jpeg,0,40,40,2,,,,,,,186.64563009999983,186.64563009999983,,,1,[0.013416300003882498],[1.0111505999957444],34.44444444444444,0.5317388999974355,1.3200013199821115e-05,,,UTS,001,2023-04-16_22h35.58.597,trial uncanny,2022.2.5,60.12961539540072,
Humanoid,HSF,Stimuli For Psychopy\Robotic\matched-32-cpi-low-c74.jpeg,matched-32-cpi-low-c74.jpeg,0,41,41,41,,,,,,,190.44557889999123,190.44557889999123,,,1,[0.01329079999413807],[1.0092006999911973],37.129629629629626,0.7350836999976309,1.2899996363557875e-05,,,UTS,001,2023-04-16_22h35.58.597,trial uncanny,2022.2.5,60.12961539540072,
Humanoid,BSF,Stimuli For Psychopy\Robotic\matched-c64.jpeg,matched-c64.jpeg,0,42,42,4,,,,,,,194.16213589999825,194.16213589999825,195.1764833999914,195.1764833999914,1,[0.0004415000003064051],[1.010491799999727],28.98148148148148,0.3330324999988079,1.3800003216601908e-05,,,UTS,001,2023-04-16_22h35.58.597,trial uncanny,2022.2.5,60.12961539540072,
Humanoid,BSF,Stimuli For Psychopy\Robotic\matched-c71.jpeg,matched-c71.jpeg,0,43,43,9,,,,,,,197.44548329999088,197.44548329999088,198.45992929999193,198.45992929999193,1,[0.22947270001168363],[1.0106501000118442],100,0.7314899999910267,1.5199999324977398e-05,,,UTS,001,2023-04-16_22h35.58.597,trial uncanny,2022.2.5,60.12961539540072,
Humanoid,HSF,Stimuli For Psychopy\Robotic\matched-32-cpi-low-c58.jpeg,matched-32-cpi-low-c58.jpeg,0,44,44,31,,,,,,,201.46203219999734,201.46203219999734,202.47630469998694,202.47630469998694,1,[0.00037629999860655516],[1.0110892999946373],35.92592592592593,0.6160839000076521,1.2999997125007212e-05,,,UTS,001,2023-04-16_22h35.58.597,trial uncanny,2022.2.5,60.12961539540072,
Humanoid,BSF,Stimuli For Psychopy\Robotic\matched-c63.jpeg,matched-c63.jpeg,0,45,45,3,,,,,,,204.96202509998693,204.96202509998693,205.97613699999056,205.97613699999056,1,[0.000454399996669963],[0.9303014999895822],31.944444444444443,1.1999267999926815,1.1900003300979733e-05,,,UTS,001,2023-04-16_22h35.58.597,trial uncanny,2022.2.5,60.12961539540072,
Humanoid,BSF,Stimuli For Psychopy\Robotic\matched-c77.jpeg,matched-c77.jpeg,0,46,46,13,,,,,,,209.16180370000075,209.16180370000075,,,1,[0.0003969999961555004],[0.9940002000075765],65.92592592592592,2.518922000002931,1.5000012353993952e-05,,,UTS,001,2023-04-16_22h35.58.597,trial uncanny,2022.2.5,60.12961539540072,
Humanoid,LSF,Stimuli For Psychopy\Robotic\matched-8-cpi-low-c48.jpeg,matched-8-cpi-low-c48.jpeg,0,47,47,15,,,,,,,214.49271779999253,214.49271779999253,,,1,[0.013369199994485825],[0.9984342999960063],30.462962962962965,0.25066920000244863,1.340000017080456e-05,,,UTS,001,2023-04-16_22h35.58.597,trial uncanny,2022.2.5,60.12961539540072,
Mechanical,HSF,Stimuli For Psychopy\Robotic\matched-32-cpi-low-c14.jpeg,matched-32-cpi-low-c14.jpeg,0,48,48,78,,,,,,,217.8592432000005,217.8592432000005,218.8577840999933,218.8577840999933,1,[0.0004358000005595386],[0.9914045000041369],0.8333333333333359,2.5834265000012238,1.3500000932253897e-05,,,UTS,001,2023-04-16_22h35.58.597,trial uncanny,2022.2.5,60.12961539540072,
Mechanical,HSF,Stimuli For Psychopy\Robotic\matched-32-cpi-low-c42.jpeg,matched-32-cpi-low-c42.jpeg,0,49,49,89,,,,,,,223.55770119999943,223.55770119999943,,,1,[0.013335199997527525],[0.9150365999958012],24.62962962962963,0.1667347000038717,1.2600008631125093e-05,,,UTS,001,2023-04-16_22h35.58.597,trial uncanny,2022.2.5,60.12961539540072,
Mechanical,BSF,Stimuli For Psychopy\Robotic\matched-c10.jpeg,matched-c10.jpeg,0,50,50,45,,,,,,,226.79469999999856,226.79469999999856,227.80902629999036,227.80902629999036,1,[0.00037039999733678997],[0.960804400005145],3.4259259259259265,0.4843805999989854,1.2600008631125093e-05,,,UTS,001,2023-04-16_22h35.58.597,trial uncanny,2022.2.5,60.12961539540072,
Mechanical,BSF,Stimuli For Psychopy\Robotic\matched-c27.jpeg,matched-c27.jpeg,0,51,51,52,,,,,,,230.46201160000055,230.46201160000055,231.47422910000023,231.47422910000023,1,[0.00040419999277219176],[0.8294942999928026],3.7037037037037033,0.5679634999978589,1.6299993149004877e-05,,,UTS,001,2023-04-16_22h35.58.597,trial uncanny,2022.2.5,60.12961539540072,
Humanoid,HSF,Stimuli For Psychopy\Robotic\matched-32-cpi-low-c72.jpeg,matched-32-cpi-low-c72.jpeg,0,52,52,40,,,,,,,234.27804249999463,234.27804249999463,235.2923143999942,235.2923143999942,1,[0.0004651000053854659],[1.0109517000091728],65.55555555555556,0.2986782999942079,1.1600001016631722e-05,,,UTS,001,2023-04-16_22h35.58.597,trial uncanny,2022.2.5,60.12961539540072,
Mechanical,HSF,Stimuli For Psychopy\Robotic\matched-32-cpi-low-c11.jpeg,matched-32-cpi-low-c11.jpeg,0,53,53,76,,,,,,,237.44447569998738,237.44447569998738,238.4588201999868,238.4588201999868,1,[0.0004489999992074445],[1.0107203000079608],8.148148148148149,0.8495346999989124,1.4300007023848593e-05,,,UTS,001,2023-04-16_22h35.58.597,trial uncanny,2022.2.5,60.12961539540072,
Humanoid,HSF,Stimuli For Psychopy\Robotic\matched-32-cpi-low-c66.jpeg,matched-32-cpi-low-c66.jpeg,0,54,54,36,,,,,,,241.12779419998697,241.12779419998697,242.1421311999875,242.1421311999875,1,[0.00045700000191573054],[1.0107489000074565],70.55555555555554,1.8851608999975724,1.200000406242907e-05,,,UTS,001,2023-04-16_22h35.58.597,trial uncanny,2022.2.5,60.12961539540072,
Humanoid,BSF,Stimuli For Psychopy\Robotic\matched-c48.jpeg,matched-c48.jpeg,0,55,55,0,,,,,,,245.84426119999262,245.84426119999262,,,1,[0.013314199997694232],[0.8609979999891948],1.2037037037037013,0.16681180000887252,1.580000389367342e-05,,,UTS,001,2023-04-16_22h35.58.597,trial uncanny,2022.2.5,60.12961539540072,
Humanoid,LSF,Stimuli For Psychopy\Robotic\matched-8-cpi-low-c79.jpeg,matched-8-cpi-low-c79.jpeg,0,56,56,29,,,,,,,248.9108559999877,248.9108559999877,249.9254426999978,249.9254426999978,2,"[0.00038240000139921904, 0.5463656000065384]","[0.4296420000027865, 1.0111968999990495]",51.75925925925926,1.0991454000031808,1.2400007108226418e-05,,,UTS,001,2023-04-16_22h35.58.597,trial uncanny,2022.2.5,60.12961539540072,
Humanoid,HSF,Stimuli For Psychopy\Robotic\matched-32-cpi-low-c77.jpeg,matched-32-cpi-low-c77.jpeg,0,57,57,43,,,,,,,253.0942561999982,253.0942561999982,,,1,[0.013153599997167476],[1.0092822999868076],63.05555555555556,0.34897069999715313,1.4399993233382702e-05,,,UTS,001,2023-04-16_22h35.58.597,trial uncanny,2022.2.5,60.12961539540072,
Mechanical,LSF,Stimuli For Psychopy\Robotic\matched-8-cpi-low-c42.jpeg,matched-8-cpi-low-c42.jpeg,0,58,58,74,,,,,,,256.21078029999626,256.21078029999626,257.20692959999724,257.20692959999724,2,"[0.0003904000041075051, 0.930186199999298]","[0.896678899996914, 0.9966660999925807]",20.370370370370374,1.030629000000772,1.2400007108226418e-05,,,UTS,001,2023-04-16_22h35.58.597,trial uncanny,2022.2.5,60.12961539540072,
Mechanical,HSF,Stimuli For Psychopy\Robotic\matched-32-cpi-low-c43.jpeg,matched-32-cpi-low-c43.jpeg,0,59,59,81,,,,,,,260.1106890999945,260.1106890999945,261.12348869998823,261.12348869998823,1,[0.00040609999268781394],[1.0094116999971448],18.796296296296294,0.4677716000005603,1.6599995433352888e-05,,,UTS,001,2023-04-16_22h35.58.597,trial uncanny,2022.2.5,60.12961539540072,
Humanoid,HSF,Stimuli For Psychopy\Robotic\matched-32-cpi-low-c64.jpeg,matched-32-cpi-low-c64.jpeg,0,60,60,34,,,,,,,263.4273671999981,263.4273671999981,264.4401083999983,264.4401083999983,1,[0.000374399998690933],[1.0105442000058247],11.2962962962963,0.3500058000063291,1.239999255631119e-05,,,UTS,001,2023-04-16_22h35.58.597,trial uncanny,2022.2.5,60.12961539540072,
Mechanical,BSF,Stimuli For Psychopy\Robotic\matched-c35.jpeg,matched-c35.jpeg,0,61,61,54,,,,,,,266.64387239998905,266.64387239998905,267.64142909999646,267.64142909999646,4,"[0.0004175000067334622, 0.44679570000153035, 0.8468452999950387, 0.9634629999927711]","[0.4133300999965286, 0.8135730000067269, 0.9301603000058094, 0.99665339999774]",14.074074074074073,0.5964042999985395,1.6599995433352888e-05,,,UTS,001,2023-04-16_22h35.58.597,trial uncanny,2022.2.5,60.12961539540072,
Mechanical,LSF,Stimuli For Psychopy\Robotic\matched-8-cpi-low-c11.jpeg,matched-8-cpi-low-c11.jpeg,0,62,62,61,,,,,,,270.32703369999945,270.32703369999945,271.3415326999966,271.3415326999966,1,[0.00038559999666176736],[1.0105596000066726],19.722222222222225,0.43393250000372063,1.170000177808106e-05,,,UTS,001,2023-04-16_22h35.58.597,trial uncanny,2022.2.5,60.12961539540072,
Humanoid,BSF,Stimuli For Psychopy\Robotic\matched-c66.jpeg,matched-c66.jpeg,0,63,63,6,,,,,,,273.5771195999987,273.5771195999987,274.5913162999932,274.5913162999932,1,[0.9128670000063721],[1.01123999999254],7.12962962962963,0.5514390000025742,1.2999997125007212e-05,,,UTS,001,2023-04-16_22h35.58.597,trial uncanny,2022.2.5,60.12961539540072,
Humanoid,HSF,Stimuli For Psychopy\Robotic\matched-32-cpi-low-c71.jpeg,matched-32-cpi-low-c71.jpeg,0,64,64,39,,,,,,,277.22694429999683,277.22694429999683,278.22650189998967,278.22650189998967,2,"[0.3456768999894848, 0.4790055999910692]","[0.39567779999924824, 0.9954977000015788]",61.38888888888889,0.6977583000116283,1.2599994079209864e-05,,,UTS,001,2023-04-16_22h35.58.597,trial uncanny,2022.2.5,60.12961539540072,
Humanoid,HSF,Stimuli For Psychopy\Robotic\matched-32-cpi-low-c67.jpeg,matched-32-cpi-low-c67.jpeg,0,65,65,37,,,,,,,281.07697499998903,281.07697499998903,282.0912900999974,282.0912900999974,0,,,54.53703703703704,1.2470241999981226,1.2699994840659201e-05,,,UTS,001,2023-04-16_22h35.58.597,trial uncanny,2022.2.5,60.12961539540072,
Mechanical,LSF,Stimuli For Psychopy\Robotic\matched-8-cpi-low-c12.jpeg,matched-8-cpi-low-c12.jpeg,0,66,66,62,,,,,,,285.2268866999948,285.2268866999948,286.2267828999902,286.2267828999902,2,"[0.44724069999938365, 0.9299978999915766]","[0.46347740000055637, 0.9468539999943459]",4.722222222222222,0.2306440999964252,1.2799995602108538e-05,,,UTS,001,2023-04-16_22h35.58.597,trial uncanny,2022.2.5,60.12961539540072,
Humanoid,LSF,Stimuli For Psychopy\Robotic\matched-8-cpi-low-c71.jpeg,matched-8-cpi-low-c71.jpeg,0,67,67,24,,,,,,,288.54344649999985,288.54344649999985,289.55619509999815,289.55619509999815,1,[0.0004270000063115731],[1.011442500006524],76.20370370370371,0.3327394999942044,1.6699996194802225e-05,,,UTS,001,2023-04-16_22h35.58.597,trial uncanny,2022.2.5,60.12961539540072,
Mechanical,BSF,Stimuli For Psychopy\Robotic\matched-c38.jpeg,matched-c38.jpeg,0,68,68,57,,,,,,,292.00992399999814,292.00992399999814,293.02424419998715,293.02424419998715,1,[0.3294767000043066],[0.41259430001082364],66.01851851851852,0.4661825999937719,1.4499993994832039e-05,,,UTS,001,2023-04-16_22h35.58.597,trial uncanny,2022.2.5,60.12961539540072,
Humanoid,LSF,Stimuli For Psychopy\Robotic\matched-8-cpi-low-c77.jpeg,matched-8-cpi-low-c77.jpeg,0,69,69,28,,,,,,,295.42658039998787,295.42658039998787,296.426410199987,296.426410199987,1,[0.6800764000072377],[0.9966626999957953],64.35185185185185,0.2807893999997759,1.4300007023848593e-05,,,UTS,001,2023-04-16_22h35.58.597,trial uncanny,2022.2.5,60.12961539540072,
Mechanical,BSF,Stimuli For Psychopy\Robotic\matched-c12.jpeg,matched-c12.jpeg,0,70,70,47,,,,,,,298.576653799988,298.576653799988,299.57689359999495,299.57689359999495,0,,,6.481481481481483,0.5307727999897907,1.3199998647905886e-05,,,UTS,001,2023-04-16_22h35.58.597,trial uncanny,2022.2.5,60.12961539540072,
Humanoid,LSF,Stimuli For Psychopy\Robotic\matched-8-cpi-low-c69.jpeg,matched-8-cpi-low-c69.jpeg,0,71,71,23,,,,,,,302.0097695999866,302.0097695999866,303.0246016999881,303.0246016999881,1,[0.0003601000062189996],[1.01145639999595],40.55555555555556,1.918431199999759,1.3800003216601908e-05,,,UTS,001,2023-04-16_22h35.58.597,trial uncanny,2022.2.5,60.12961539540072,
Humanoid,LSF,Stimuli For Psychopy\Robotic\matched-8-cpi-low-c67.jpeg,matched-8-cpi-low-c67.jpeg,0,72,72,22,,,,,,,306.7762189999921,306.7762189999921,,,1,[0.013412300002528355],[1.0107854999951087],40.18518518518518,0.5836861999996472,1.2200005585327744e-05,,,UTS,001,2023-04-16_22h35.58.597,trial uncanny,2022.2.5,60.12961539540072,
Humanoid,HSF,Stimuli For Psychopy\Robotic\matched-32-cpi-low-c65.jpeg,matched-32-cpi-low-c65.jpeg,0,73,73,35,,,,,,,310.19297359998745,310.19297359998745,311.2056433999969,311.2056433999969,0,,,33.51851851851852,1.2646361999941291,1.2200005585327744e-05,,,UTS,001,2023-04-16_22h35.58.597,trial uncanny,2022.2.5,60.12961539540072,
Mechanical,BSF,Stimuli For Psychopy\Robotic\matched-c16.jpeg,matched-c16.jpeg,0,74,74,49,,,,,,,314.75953279998794,314.75953279998794,,,1,[0.6301620000012917],[0.8611364000098547],10.925925925925927,0.43449719999625813,1.2100004823878407e-05,,,UTS,001,2023-04-16_22h35.58.597,trial uncanny,2022.2.5,60.12961539540072,
Humanoid,BSF,Stimuli For Psychopy\Robotic\matched-c69.jpeg,matched-c69.jpeg,0,75,75,8,,,,,,,318.37616929999785,318.37616929999785,319.3904920999921,319.3904920999921,3,"[0.00041059999784920365, 0.1633880000008503, 0.36332939998828806]","[0.029979499988257885, 0.3472410999966087, 1.0099953999888385]",32.68518518518518,0.3011011999915354,1.1800002539530396e-05,,,UTS,001,2023-04-16_22h35.58.597,trial uncanny,2022.2.5,60.12961539540072,
Mechanical,HSF,Stimuli For Psychopy\Robotic\matched-32-cpi-low-c38.jpeg,matched-32-cpi-low-c38.jpeg,0,76,76,87,,,,,,,321.5093722999882,321.5093722999882,322.52379289999953,322.52379289999953,1,[0.0007260999991558492],[1.00935509998817],26.01851851851852,0.7340990000084275,1.309999788645655e-05,,,UTS,001,2023-04-16_22h35.58.597,trial uncanny,2022.2.5,60.12961539540072,
Humanoid,LSF,Stimuli For Psychopy\Robotic\matched-8-cpi-low-c76.jpeg,matched-8-cpi-low-c76.jpeg,0,77,77,27,,,,,,,325.04251029998704,325.04251029998704,326.0570108999964,326.0570108999964,1,[0.0003620999923441559],[1.0105183999985456],53.98148148148149,1.5333612999966135,1.2500007869675756e-05,,,UTS,001,2023-04-16_22h35.58.597,trial uncanny,2022.2.5,60.12961539540072,
Mechanical,HSF,Stimuli For Psychopy\Robotic\matched-32-cpi-low-c36.jpeg,matched-32-cpi-low-c36.jpeg,0,78,78,85,,,,,,,329.3759121999901,329.3759121999901,330.3754107999994,330.3754107999994,1,[0.01335970000945963],[1.012992400006624],32.870370370370374,0.26427039998816326,1.5099998563528061e-05,,,UTS,001,2023-04-16_22h35.58.597,trial uncanny,2022.2.5,60.12961539540072,
Humanoid,HSF,Stimuli For Psychopy\Robotic\matched-32-cpi-low-c63.jpeg,matched-32-cpi-low-c63.jpeg,0,79,79,33,,,,,,,332.80912709998665,332.80912709998665,333.8235657999903,333.8235657999903,1,[0.00034580001374706626],[1.0105069000128424],27.40740740740741,0.081700800001272,1.4600009308196604e-05,,,UTS,001,2023-04-16_22h35.58.597,trial uncanny,2022.2.5,60.12961539540072,
Humanoid,BSF,Stimuli For Psychopy\Robotic\matched-c67.jpeg,matched-c67.jpeg,0,80,80,7,,,,,,,335.8090349999984,335.8090349999984,336.8218753999972,336.8218753999972,1,[0.0003816999960690737],[1.0117564999964088],17.5,0.7313042000023415,1.589999010320753e-05,,,UTS,001,2023-04-16_22h35.58.597,trial uncanny,2022.2.5,60.12961539540072,
Humanoid,HSF,Stimuli For Psychopy\Robotic\matched-32-cpi-low-c69.jpeg,matched-32-cpi-low-c69.jpeg,0,81,81,38,,,,,,,339.65904169999703,339.65904169999703,340.67348069998843,340.67348069998843,1,[0.00037799999699927866],[1.0104717999929562],22.87037037037037,0.2831776999955764,1.6299993149004877e-05,,,UTS,001,2023-04-16_22h35.58.597,trial uncanny,2022.2.5,60.12961539540072,
Mechanical,LSF,Stimuli For Psychopy\Robotic\matched-8-cpi-low-c33.jpeg,matched-8-cpi-low-c33.jpeg,0,82,82,68,,,,,,,343.0754881999892,343.0754881999892,344.0757780999993,344.0757780999993,1,[0.846647700003814],[0.9962056999938795],11.203703703703704,0.5791335999965668,1.200000406242907e-05,,,UTS,001,2023-04-16_22h35.58.597,trial uncanny,2022.2.5,60.12961539540072,
Mechanical,HSF,Stimuli For Psychopy\Robotic\matched-32-cpi-low-c12.jpeg,matched-32-cpi-low-c12.jpeg,0,83,83,77,,,,,,,346.7254511999927,346.7254511999927,347.7398331000004,347.7398331000004,3,"[0.04640570000628941, 0.4463790000008885, 0.5130511000024853]","[0.17972179999924265, 0.4962419000075897, 1.010934999998426]",8.888888888888891,1.04799649999768,1.1999989510513842e-05,,,UTS,001,2023-04-16_22h35.58.597,trial uncanny,2022.2.5,60.12961539540072,
Humanoid,BSF,Stimuli For Psychopy\Robotic\matched-c65.jpeg,matched-c65.jpeg,0,84,84,5,,,,,,,350.8091083999898,350.8091083999898,,,3,"[0.0003825000021606684, 0.529636200008099, 0.5800172000017483]","[0.5130823000072269, 0.5632279999990715, 0.9798608999990392]",41.94444444444444,0.7142448000086006,1.3299999409355223e-05,,,UTS,001,2023-04-16_22h35.58.597,trial uncanny,2022.2.5,60.12961539540072,
Humanoid,HSF,Stimuli For Psychopy\Robotic\matched-32-cpi-low-c61.jpeg,matched-32-cpi-low-c61.jpeg,0,85,85,32,,,,,,,354.4421476999996,354.4421476999996,355.4563022999937,355.4563022999937,1,[0.0006752000044798478],[1.010104400003911],41.94444444444444,0.7657971000007819,1.1900003300979733e-05,,,UTS,001,2023-04-16_22h35.58.597,trial uncanny,2022.2.5,60.12961539540072,
Humanoid,LSF,Stimuli For Psychopy\Robotic\matched-8-cpi-low-c66.jpeg,matched-8-cpi-low-c66.jpeg,0,86,86,21,,,,,,,358.7919746999978,358.7919746999978,359.7915888999996,359.7915888999996,1,[0.013574399999924935],[1.0135314999934053],9.907407407407408,0.5623932999878889,1.3700002455152571e-05,,,UTS,001,2023-04-16_22h35.58.597,trial uncanny,2022.2.5,60.12961539540072,
Mechanical,BSF,Stimuli For Psychopy\Robotic\matched-c41.jpeg,matched-c41.jpeg,0,87,87,58,,,,,,,362.4419737999997,362.4419737999997,363.4545209999924,363.4545209999924,1,[0.0004361000028438866],[0.8790280999965034],7.592592592592595,0.5993149999994785,1.3700002455152571e-05,,,UTS,001,2023-04-16_22h35.58.597,trial uncanny,2022.2.5,60.12961539540072,
Mechanical,HSF,Stimuli For Psychopy\Robotic\matched-32-cpi-low-c10.jpeg,matched-32-cpi-low-c10.jpeg,0,88,88,75,,,,,,,366.0250703999918,366.0250703999918,,,2,"[0.013112999993609264, 1.010816399997566]","[0.8294535000022734, 1.0108187000005273]",1.2037037037037013,0.5499808000022313,1.2200005585327744e-05,,,UTS,001,2023-04-16_22h35.58.597,trial uncanny,2022.2.5,60.12961539540072,
Humanoid,BSF,Stimuli For Psychopy\Robotic\matched-c76.jpeg,matched-c76.jpeg,0,89,89,12,,,,,,,369.7583677999937,369.7583677999937,370.77110109999194,370.77110109999194,1,[0.0006664999964414164],[1.01140440000745],53.24074074074075,0.38261010000132956,1.2799995602108538e-05,,,UTS,001,2023-04-16_22h35.58.597,trial uncanny,2022.2.5,60.12961539540072,
,,,,,,,,,,,,,,,,,,,,,,,,0.015620299993315712,1.0176804999937303,,,,,,,
