Type,Spatial_Frequency,filepath,file_name,robotic_trials.thisRepN,robotic_trials.thisTrialN,robotic_trials.thisN,robotic_trials.thisIndex,instruction.started,key_resp.started,key_resp.keys,key_resp.rt,etRecord.started,etRecord.stopped,Robotic__Stimuli.started,roi.started,roi.numLooks,roi.timesOn,roi.timesOff,M_H_likeness_slider.response,M_H_likeness_slider.rt,ISI_2.started,Robotic__Stimuli.stopped,roi.stopped,etRecord_2.started,etRecord_2.stopped,participant,session,date,expName,psychopyVersion,frameRate,
,,,,,,,,24.707299700006843,24.707299700006843,space,1.1427960000000894,,,,,,,,,,,,,,,VAG,001,2023-05-06_18h26.28.753,trial uncanny,2022.2.5,59.286346529918546,
Mechanical,HSF,Stimuli For Psychopy\Robotic\matched-32-cpi-low-c17.jpeg,matched-32-cpi-low-c17.jpeg,0,0,0,80,,,,,1.3500044587999582e-05,1.3500044587999582e-05,26.867917700030375,26.867917700030375,1,[0.00060450000455603],[0.975997900008224],1.1111111111111127,1.5141404999885708,1.4399993233382702e-05,,,,,VAG,001,2023-05-06_18h26.28.753,trial uncanny,2022.2.5,59.286346529918546,
Mechanical,LSF,Stimuli For Psychopy\Robotic\matched-8-cpi-low-c37.jpeg,matched-8-cpi-low-c37.jpeg,0,1,1,71,,,,,,,31.503488400019705,31.503488400019705,1,[0.0004061999497935176],[0.995482099999208],7.685185185185183,0.8183953000116162,1.260003773495555e-05,,,,,VAG,001,2023-05-06_18h26.28.753,trial uncanny,2022.2.5,59.286346529918546,
Mechanical,BSF,Stimuli For Psychopy\Robotic\matched-c17.jpeg,matched-c17.jpeg,0,2,2,50,,,,,,,35.43676820001565,35.43676820001565,1,[0.013292699994053692],[1.0132141999783926],3.98148148148148,0.6644261000328697,1.1400028597563505e-05,36.43459989997791,36.43459989997791,,,VAG,001,2023-05-06_18h26.28.753,trial uncanny,2022.2.5,59.286346529918546,
Humanoid,LSF,Stimuli For Psychopy\Robotic\matched-8-cpi-low-c64.jpeg,matched-8-cpi-low-c64.jpeg,0,3,3,19,,,,,,,39.22005060000811,39.22005060000811,1,[0.011393900029361248],[1.0138292000046931],35.092592592592595,1.263628700049594,1.2399978004395962e-05,40.218207099998835,40.218207099998835,,,VAG,001,2023-05-06_18h26.28.753,trial uncanny,2022.2.5,59.286346529918546,
Humanoid,HSF,Stimuli For Psychopy\Robotic\matched-32-cpi-low-c69.jpeg,matched-32-cpi-low-c69.jpeg,0,4,4,38,,,,,,,43.31987399997888,43.31987399997888,1,[0.0004417000454850495],[0.9963578000315465],53.425925925925924,0.7815954999532551,1.4100049156695604e-05,44.317914800019935,44.317914800019935,,,VAG,001,2023-05-06_18h26.28.753,trial uncanny,2022.2.5,59.286346529918546,
Humanoid,BSF,Stimuli For Psychopy\Robotic\matched-c61.jpeg,matched-c61.jpeg,0,5,5,2,,,,,,,47.18948529998306,47.18948529998306,1,[0.0003836999530903995],[1.0103246999788098],22.59259259259259,0.6162602999829687,1.5099998563528061e-05,48.20302429998992,48.20302429998992,,,VAG,001,2023-05-06_18h26.28.753,trial uncanny,2022.2.5,59.286346529918546,
Mechanical,LSF,Stimuli For Psychopy\Robotic\matched-8-cpi-low-c42.jpeg,matched-8-cpi-low-c42.jpeg,0,6,6,74,,,,,,,50.6698189000017,50.6698189000017,1,[0.00036120001459494233],[0.9953614000114612],4.907407407407405,0.9530937999952585,1.4299992471933365e-05,,,,,VAG,001,2023-05-06_18h26.28.753,trial uncanny,2022.2.5,59.286346529918546,
Mechanical,LSF,Stimuli For Psychopy\Robotic\matched-8-cpi-low-c41.jpeg,matched-8-cpi-low-c41.jpeg,0,7,7,73,,,,,,,54.52323819999583,54.52323819999583,1,[0.011803100001998246],[1.0138529000105336],5.277777777777776,0.7830116999684833,1.3100041542202234e-05,,,,,VAG,001,2023-05-06_18h26.28.753,trial uncanny,2022.2.5,59.286346529918546,
Humanoid,BSF,Stimuli For Psychopy\Robotic\matched-c76.jpeg,matched-c76.jpeg,0,8,8,12,,,,,,,58.203282099973876,58.203282099973876,1,[0.00044299999717622995],[0.9793214999954216],67.5925925925926,0.6530655000242405,1.2300035450607538e-05,,,,,VAG,001,2023-05-06_18h26.28.753,trial uncanny,2022.2.5,59.286346529918546,
Mechanical,HSF,Stimuli For Psychopy\Robotic\matched-32-cpi-low-c12.jpeg,matched-32-cpi-low-c12.jpeg,0,9,9,77,,,,,,,62.25586259999545,62.25586259999545,1,[0.0004401999758556485],[1.0087573999771848],5.37037037037037,0.5343701000092551,1.479999627918005e-05,63.26731229998404,63.26731229998404,,,VAG,001,2023-05-06_18h26.28.753,trial uncanny,2022.2.5,59.286346529918546,
Mechanical,LSF,Stimuli For Psychopy\Robotic\matched-8-cpi-low-c14.jpeg,matched-8-cpi-low-c14.jpeg,0,10,10,63,,,,,,,65.63647829997353,65.63647829997353,1,[0.0005954999942332506],[0.9806341000366956],3.055555555555556,0.986371299950406,1.3100041542202234e-05,,,,,VAG,001,2023-05-06_18h26.28.753,trial uncanny,2022.2.5,59.286346529918546,
Humanoid,BSF,Stimuli For Psychopy\Robotic\matched-c67.jpeg,matched-c67.jpeg,0,11,11,7,,,,,,,69.60258559999056,69.60258559999056,1,[0.01344409998273477],[1.013293199997861],50.09259259259259,0.6826744999852963,1.279998105019331e-05,70.60293719999027,70.60293719999027,,,VAG,001,2023-05-06_18h26.28.753,trial uncanny,2022.2.5,59.286346529918546,
Mechanical,BSF,Stimuli For Psychopy\Robotic\matched-c42.jpeg,matched-c42.jpeg,0,12,12,59,,,,,,,73.10258970002178,73.10258970002178,2,"[0.00035640003625303507, 0.7135399000253528]","[0.3631310000200756, 0.996923400030937]",5.277777777777776,0.451769899984356,1.179997343569994e-05,74.10250769997947,74.10250769997947,,,VAG,001,2023-05-06_18h26.28.753,trial uncanny,2022.2.5,59.286346529918546,
Mechanical,HSF,Stimuli For Psychopy\Robotic\matched-32-cpi-low-c27.jpeg,matched-32-cpi-low-c27.jpeg,0,13,13,82,,,,,,,76.43569379998371,76.43569379998371,2,"[0.0005098000401630998, 0.5630546000320464]","[0.34625750000122935, 0.9962668000371195]",4.074074074074074,0.499628700024914,1.3999990187585354e-05,77.4338459999999,77.4338459999999,,,VAG,001,2023-05-06_18h26.28.753,trial uncanny,2022.2.5,59.286346529918546,
Humanoid,BSF,Stimuli For Psychopy\Robotic\matched-c64.jpeg,matched-c64.jpeg,0,14,14,4,,,,,,,79.85235270002158,79.85235270002158,1,[0.01187069999286905],[1.0135751999914646],35.0,2.5021439000265673,1.209997572004795e-05,80.85029520001262,80.85029520001262,,,VAG,001,2023-05-06_18h26.28.753,trial uncanny,2022.2.5,59.286346529918546,
Humanoid,HSF,Stimuli For Psychopy\Robotic\matched-32-cpi-low-c61.jpeg,matched-32-cpi-low-c61.jpeg,0,15,15,32,,,,,,,85.23560850002104,85.23560850002104,1,[0.00041040003998205066],[0.996903499995824],61.57407407407407,0.7145247999578714,1.2999982573091984e-05,86.23347500001546,86.23347500001546,,,VAG,001,2023-05-06_18h26.28.753,trial uncanny,2022.2.5,59.286346529918546,
Humanoid,LSF,Stimuli For Psychopy\Robotic\matched-8-cpi-low-c71.jpeg,matched-8-cpi-low-c71.jpeg,0,16,16,24,,,,,,,88.83545980002964,88.83545980002964,3,"[0.0004790000384673476, 0.2804891000268981, 0.4139727000147104]","[0.21188980003353208, 0.31369049998465925, 0.9788962000166066]",81.57407407407408,0.43150250002508983,1.7099955584853888e-05,,,,,VAG,001,2023-05-06_18h26.28.753,trial uncanny,2022.2.5,59.286346529918546,
Mechanical,HSF,Stimuli For Psychopy\Robotic\matched-32-cpi-low-c41.jpeg,matched-32-cpi-low-c41.jpeg,0,17,17,88,,,,,,,92.05208639998455,92.05208639998455,1,[0.00040259998058900237],[0.994346699968446],7.500000000000001,0.4331106999889016,1.3700046110898256e-05,,,,,VAG,001,2023-05-06_18h26.28.753,trial uncanny,2022.2.5,59.286346529918546,
Humanoid,LSF,Stimuli For Psychopy\Robotic\matched-8-cpi-low-c77.jpeg,matched-8-cpi-low-c77.jpeg,0,18,18,28,,,,,,,95.48546489997534,95.48546489997534,1,[0.0004647999885492027],[0.9965627000201494],65.55555555555556,0.7995029999874532,1.2599979527294636e-05,96.48513580003055,96.48513580003055,,,VAG,001,2023-05-06_18h26.28.753,trial uncanny,2022.2.5,59.286346529918546,
Humanoid,BSF,Stimuli For Psychopy\Robotic\matched-c63.jpeg,matched-c63.jpeg,0,19,19,3,,,,,,,99.0550417000195,99.0550417000195,1,[0.0004007000243291259],[1.0098647000268102],66.75925925925927,0.8643911000108346,1.2100033927708864e-05,100.0686123999767,100.0686123999767,,,VAG,001,2023-05-06_18h26.28.753,trial uncanny,2022.2.5,59.286346529918546,
Humanoid,LSF,Stimuli For Psychopy\Robotic\matched-8-cpi-low-c58.jpeg,matched-8-cpi-low-c58.jpeg,0,20,20,16,,,,,,,102.68515520001529,102.68515520001529,1,[0.0004070000140927732],[0.9964881000341848],23.24074074074074,0.4490473999758251,1.3399985618889332e-05,103.6850596999866,103.6850596999866,,,VAG,001,2023-05-06_18h26.28.753,trial uncanny,2022.2.5,59.286346529918546,
Humanoid,LSF,Stimuli For Psychopy\Robotic\matched-8-cpi-low-c61.jpeg,matched-8-cpi-low-c61.jpeg,0,21,21,17,,,,,,,105.95175359997666,105.95175359997666,1,[0.0006292000180110335],[0.9961938000051305],25.092592592592588,0.36668099998496473,1.3399985618889332e-05,106.94970070000272,106.94970070000272,,,VAG,001,2023-05-06_18h26.28.753,trial uncanny,2022.2.5,59.286346529918546,
Mechanical,HSF,Stimuli For Psychopy\Robotic\matched-32-cpi-low-c42.jpeg,matched-32-cpi-low-c42.jpeg,0,22,22,89,,,,,,,109.16834299999755,109.16834299999755,1,[0.00041609996696934104],[0.9964581999811344],2.962962962962962,0.38128460000734776,1.2000033166259527e-05,110.1663486000034,110.1663486000034,,,VAG,001,2023-05-06_18h26.28.753,trial uncanny,2022.2.5,59.286346529918546,
Mechanical,BSF,Stimuli For Psychopy\Robotic\matched-c11.jpeg,matched-c11.jpeg,0,23,23,46,,,,,,,112.63496799999848,112.63496799999848,1,[0.0003766000154428184],[0.9945607000263408],3.888888888888886,0.5200470999698155,1.5400000847876072e-05,,,,,VAG,001,2023-05-06_18h26.28.753,trial uncanny,2022.2.5,59.286346529918546,
Mechanical,LSF,Stimuli For Psychopy\Robotic\matched-8-cpi-low-c16.jpeg,matched-8-cpi-low-c16.jpeg,0,24,24,64,,,,,,,115.98483560001478,115.98483560001478,1,[0.0004482999793253839],[0.9971703999908641],2.962962962962962,0.6822832000325434,1.479999627918005e-05,116.98257300001569,116.98257300001569,,,VAG,001,2023-05-06_18h26.28.753,trial uncanny,2022.2.5,59.286346529918546,
Mechanical,LSF,Stimuli For Psychopy\Robotic\matched-8-cpi-low-c11.jpeg,matched-8-cpi-low-c11.jpeg,0,25,25,61,,,,,,,119.58488179999404,119.58488179999404,1,[0.00033139996230602264],[0.9972287999698892],2.592592592592591,1.0523104000021704,2.0899984519928694e-05,120.58271689998219,120.58271689998219,,,VAG,001,2023-05-06_18h26.28.753,trial uncanny,2022.2.5,59.286346529918546,
Mechanical,HSF,Stimuli For Psychopy\Robotic\matched-32-cpi-low-c35.jpeg,matched-32-cpi-low-c35.jpeg,0,26,26,84,,,,,,,123.5210769000114,123.5210769000114,1,[0.0004298000130802393],[1.0084725999622606],12.962962962962965,0.5683414000086486,1.2000033166259527e-05,124.53251400002046,124.53251400002046,,,VAG,001,2023-05-06_18h26.28.753,trial uncanny,2022.2.5,59.286346529918546,
Humanoid,BSF,Stimuli For Psychopy\Robotic\matched-c66.jpeg,matched-c66.jpeg,0,27,27,6,,,,,,,126.91793569998117,126.91793569998117,1,[0.0003752000047825277],[0.9968896000063978],52.03703703703704,1.2828806000179611,1.610000617802143e-05,127.91787649999605,127.91787649999605,,,VAG,001,2023-05-06_18h26.28.753,trial uncanny,2022.2.5,59.286346529918546,
Mechanical,BSF,Stimuli For Psychopy\Robotic\matched-c41.jpeg,matched-c41.jpeg,0,28,28,58,,,,,,,131.47083760000532,131.47083760000532,2,"[0.0005248000379651785, 0.4103367000352591]","[0.37722750002285466, 1.0105309000355192]",9.35185185185185,0.5667096999823116,1.2499978765845299e-05,132.48253360000672,132.48253360000672,,,VAG,001,2023-05-06_18h26.28.753,trial uncanny,2022.2.5,59.286346529918546,
Mechanical,HSF,Stimuli For Psychopy\Robotic\matched-32-cpi-low-c38.jpeg,matched-32-cpi-low-c38.jpeg,0,29,29,87,,,,,,,134.88441569998395,134.88441569998395,1,[0.013885800028219819],[1.011852000025101],5.0925925925925934,1.6524288999498822,1.2700038496404886e-05,,,,,VAG,001,2023-05-06_18h26.28.753,trial uncanny,2022.2.5,59.286346529918546,
Mechanical,HSF,Stimuli For Psychopy\Robotic\matched-32-cpi-low-c37.jpeg,matched-32-cpi-low-c37.jpeg,0,30,30,86,,,,,,,139.50397060002433,139.50397060002433,1,[0.0006083999760448933],[1.0087779999594204],2.870370370370373,0.582980300008785,1.2299977242946625e-05,140.51774410001235,140.51774410001235,,,VAG,001,2023-05-06_18h26.28.753,trial uncanny,2022.2.5,59.286346529918546,
Mechanical,LSF,Stimuli For Psychopy\Robotic\matched-8-cpi-low-c35.jpeg,matched-8-cpi-low-c35.jpeg,0,31,31,69,,,,,,,143.20091449999018,143.20091449999018,1,[0.013702700030989945],[1.0134197000297718],3.888888888888886,0.6662845000391826,1.3199984095990658e-05,144.20070210000267,144.20070210000267,,,VAG,001,2023-05-06_18h26.28.753,trial uncanny,2022.2.5,59.286346529918546,
Humanoid,HSF,Stimuli For Psychopy\Robotic\matched-32-cpi-low-c72.jpeg,matched-32-cpi-low-c72.jpeg,0,32,32,40,,,,,,,146.71744999999646,146.71744999999646,1,[0.015570000046864152],[1.015626800013706],59.62962962962963,0.5993860000162385,1.1999974958598614e-05,147.7173955999897,147.7173955999897,,,VAG,001,2023-05-06_18h26.28.753,trial uncanny,2022.2.5,59.286346529918546,
Mechanical,BSF,Stimuli For Psychopy\Robotic\matched-c35.jpeg,matched-c35.jpeg,0,33,33,54,,,,,,,150.10085500002606,150.10085500002606,1,[0.0005321999778971076],[0.9912860000040382],5.7407407407407405,0.7367009000154212,1.2299977242946625e-05,,,,,VAG,001,2023-05-06_18h26.28.753,trial uncanny,2022.2.5,59.286346529918546,
Mechanical,LSF,Stimuli For Psychopy\Robotic\matched-8-cpi-low-c43.jpeg,matched-8-cpi-low-c43.jpeg,0,34,34,66,,,,,,,153.9370824000216,153.9370824000216,1,[0.0006047000060789287],[1.0108412000117823],5.462962962962964,0.5305397999472916,1.1999974958598614e-05,154.9507397999987,154.9507397999987,,,VAG,001,2023-05-06_18h26.28.753,trial uncanny,2022.2.5,59.286346529918546,
Mechanical,HSF,Stimuli For Psychopy\Robotic\matched-32-cpi-low-c10.jpeg,matched-32-cpi-low-c10.jpeg,0,35,35,75,,,,,,,157.2650905000046,157.2650905000046,1,[0.00039950001519173384],[0.996311999973841],4.629629629629628,0.44922319997567683,1.2800039257854223e-05,158.26523479999742,158.26523479999742,,,VAG,001,2023-05-06_18h26.28.753,trial uncanny,2022.2.5,59.286346529918546,
Mechanical,BSF,Stimuli For Psychopy\Robotic\matched-c14.jpeg,matched-c14.jpeg,0,36,36,48,,,,,,,160.53383229998872,160.53383229998872,1,[0.0003983000060543418],[0.9964588000439107],1.5740740740740722,0.6487265000469051,1.2700038496404886e-05,161.53404130000854,161.53404130000854,,,VAG,001,2023-05-06_18h26.28.753,trial uncanny,2022.2.5,59.286346529918546,
Mechanical,BSF,Stimuli For Psychopy\Robotic\matched-c37.jpeg,matched-c37.jpeg,0,37,37,56,,,,,,,164.09829380002338,164.09829380002338,1,[0.02808249997906387],[1.011501999979373],8.148148148148149,0.6679352999781258,1.309998333454132e-05,165.09851799998432,165.09851799998432,,,VAG,001,2023-05-06_18h26.28.753,trial uncanny,2022.2.5,59.286346529918546,
Humanoid,LSF,Stimuli For Psychopy\Robotic\matched-8-cpi-low-c79.jpeg,matched-8-cpi-low-c79.jpeg,0,38,38,29,,,,,,,167.6003386999946,167.6003386999946,1,[0.013939499971456826],[1.0135500999749638],90.0,0.5662403999594972,1.2800039257854223e-05,168.60018780000973,168.60018780000973,,,VAG,001,2023-05-06_18h26.28.753,trial uncanny,2022.2.5,59.286346529918546,
Humanoid,BSF,Stimuli For Psychopy\Robotic\matched-c79.jpeg,matched-c79.jpeg,0,39,39,14,,,,,,,171.21689500001958,171.21689500001958,1,[0.011114499997347593],[1.013010900001973],92.5925925925926,0.4995970000163652,1.2500036973506212e-05,172.21675690001575,172.21675690001575,,,VAG,001,2023-05-06_18h26.28.753,trial uncanny,2022.2.5,59.286346529918546,
Humanoid,BSF,Stimuli For Psychopy\Robotic\matched-c77.jpeg,matched-c77.jpeg,0,40,40,13,,,,,,,174.4865118000307,174.4865118000307,1,[0.0004102999810129404],[1.008583799994085],88.61111111111111,0.43285480001941323,1.2399978004395962e-05,175.49799290002557,175.49799290002557,,,VAG,001,2023-05-06_18h26.28.753,trial uncanny,2022.2.5,59.286346529918546,
Mechanical,HSF,Stimuli For Psychopy\Robotic\matched-32-cpi-low-c14.jpeg,matched-32-cpi-low-c14.jpeg,0,41,41,78,,,,,,,177.68121200002497,177.68121200002497,2,"[0.00038189999759197235, 0.34667840000474826]","[0.2799381000222638, 0.996983100019861]",12.592592592592593,0.4971474999911152,1.2599979527294636e-05,178.6812430000282,178.6812430000282,,,VAG,001,2023-05-06_18h26.28.753,trial uncanny,2022.2.5,59.286346529918546,
Humanoid,HSF,Stimuli For Psychopy\Robotic\matched-32-cpi-low-c66.jpeg,matched-32-cpi-low-c66.jpeg,0,42,42,36,,,,,,,181.33333400002448,181.33333400002448,1,[0.01336689997697249],[1.0131562000024132],83.88888888888889,0.416109099984169,1.3000040780752897e-05,182.333200699999,182.333200699999,,,VAG,001,2023-05-06_18h26.28.753,trial uncanny,2022.2.5,59.286346529918546,
Humanoid,LSF,Stimuli For Psychopy\Robotic\matched-8-cpi-low-c63.jpeg,matched-8-cpi-low-c63.jpeg,0,43,43,18,,,,,,,184.46961460000603,184.46961460000603,1,[0.0005397000350058079],[1.0090106999850832],27.037037037037038,0.8474725999985822,1.2599979527294636e-05,185.48110400000587,185.48110400000587,,,VAG,001,2023-05-06_18h26.28.753,trial uncanny,2022.2.5,59.286346529918546,
Humanoid,HSF,Stimuli For Psychopy\Robotic\matched-32-cpi-low-c48.jpeg,matched-32-cpi-low-c48.jpeg,0,44,44,30,,,,,,,188.11719050002284,188.11719050002284,1,[0.00041040003998205066],[0.9789122000220232],12.037037037037035,0.5664715000311844,1.3299984857439995e-05,,,,,VAG,001,2023-05-06_18h26.28.753,trial uncanny,2022.2.5,59.286346529918546,
Mechanical,BSF,Stimuli For Psychopy\Robotic\matched-c38.jpeg,matched-c38.jpeg,0,45,45,57,,,,,,,191.43133639998268,191.43133639998268,1,[0.013204999966546893],[1.0130721000023186],10.833333333333334,0.449692300055176,1.2599979527294636e-05,192.43113959999755,192.43113959999755,,,VAG,001,2023-05-06_18h26.28.753,trial uncanny,2022.2.5,59.286346529918546,
Mechanical,HSF,Stimuli For Psychopy\Robotic\matched-32-cpi-low-c33.jpeg,matched-32-cpi-low-c33.jpeg,0,46,46,83,,,,,,,194.68306940002367,194.68306940002367,1,[0.00039579998701810837],[0.9805537000065669],9.999999999999998,0.5837498999899253,1.2299977242946625e-05,,,,,VAG,001,2023-05-06_18h26.28.753,trial uncanny,2022.2.5,59.286346529918546,
Mechanical,BSF,Stimuli For Psychopy\Robotic\matched-c27.jpeg,matched-c27.jpeg,0,47,47,52,,,,,,,198.39970389998052,198.39970389998052,1,[0.014748300018254668],[1.0124565999722108],7.314814814814813,0.28578219999326393,1.3699987903237343e-05,,,,,VAG,001,2023-05-06_18h26.28.753,trial uncanny,2022.2.5,59.286346529918546,
Mechanical,BSF,Stimuli For Psychopy\Robotic\matched-c10.jpeg,matched-c10.jpeg,0,48,48,45,,,,,,,201.4495737000252,201.4495737000252,2,"[0.0003583999932743609, 0.7301627999986522]","[0.6805203999974765, 0.9968795999884605]",5.555555555555558,0.5833280999795534,1.209997572004795e-05,202.44748730002902,202.44748730002902,,,VAG,001,2023-05-06_18h26.28.753,trial uncanny,2022.2.5,59.286346529918546,
Mechanical,LSF,Stimuli For Psychopy\Robotic\matched-8-cpi-low-c36.jpeg,matched-8-cpi-low-c36.jpeg,0,49,49,70,,,,,,,204.81613220000872,204.81613220000872,1,[0.00039469997864216566],[0.9986036999616772],18.98148148148148,1.0322822000016458,1.3699987903237343e-05,205.81409820000408,205.81409820000408,,,VAG,001,2023-05-06_18h26.28.753,trial uncanny,2022.2.5,59.286346529918546,
Humanoid,LSF,Stimuli For Psychopy\Robotic\matched-8-cpi-low-c65.jpeg,matched-8-cpi-low-c65.jpeg,0,50,50,20,,,,,,,208.85245940001914,208.85245940001914,1,[0.0003205999964848161],[1.0103469000314362],55.00000000000001,0.599111300020013,1.2300035450607538e-05,209.86606919998303,209.86606919998303,,,VAG,001,2023-05-06_18h26.28.753,trial uncanny,2022.2.5,59.286346529918546,
Humanoid,HSF,Stimuli For Psychopy\Robotic\matched-32-cpi-low-c71.jpeg,matched-32-cpi-low-c71.jpeg,0,51,51,39,,,,,,,212.28262650000397,212.28262650000397,1,[0.00037130003329366446],[0.9982790999929421],77.03703703703704,0.43296460004057735,1.2399978004395962e-05,213.28271459997632,213.28271459997632,,,VAG,001,2023-05-06_18h26.28.753,trial uncanny,2022.2.5,59.286346529918546,
Humanoid,HSF,Stimuli For Psychopy\Robotic\matched-32-cpi-low-c79.jpeg,matched-32-cpi-low-c79.jpeg,0,52,52,44,,,,,,,215.46602659998462,215.46602659998462,1,[0.0004440000047907233],[0.9794239000184461],86.01851851851852,0.41500710003310814,1.3199984095990658e-05,,,,,VAG,001,2023-05-06_18h26.28.753,trial uncanny,2022.2.5,59.286346529918546,
Humanoid,HSF,Stimuli For Psychopy\Robotic\matched-32-cpi-low-c63.jpeg,matched-32-cpi-low-c63.jpeg,0,53,53,33,,,,,,,218.69743469997775,218.69743469997775,1,[0.00042459997348487377],[0.9965972999925725],61.48148148148148,0.3497724999906495,1.3199984095990658e-05,219.6990278000012,219.6990278000012,,,VAG,001,2023-05-06_18h26.28.753,trial uncanny,2022.2.5,59.286346529918546,
Humanoid,HSF,Stimuli For Psychopy\Robotic\matched-32-cpi-low-c74.jpeg,matched-32-cpi-low-c74.jpeg,0,54,54,41,,,,,,,221.76577080000425,221.76577080000425,1,[0.000408699968829751],[0.9959369999705814],62.22222222222222,0.3832828000304289,1.3899989426136017e-05,222.763825299975,222.763825299975,,,VAG,001,2023-05-06_18h26.28.753,trial uncanny,2022.2.5,59.286346529918546,
Humanoid,BSF,Stimuli For Psychopy\Robotic\matched-c72.jpeg,matched-c72.jpeg,0,55,55,10,,,,,,,224.88240780000342,224.88240780000342,1,[0.0005581000004895031],[0.9803912999923341],40.55555555555556,0.5501572999637574,1.3299984857439995e-05,,,,,VAG,001,2023-05-06_18h26.28.753,trial uncanny,2022.2.5,59.286346529918546,
Mechanical,HSF,Stimuli For Psychopy\Robotic\matched-32-cpi-low-c36.jpeg,matched-32-cpi-low-c36.jpeg,0,56,56,85,,,,,,,228.53236210002797,228.53236210002797,1,[0.00041360000614076853],[1.0116896000108682],31.851851851851855,0.5157240999978967,1.3499986380338669e-05,229.54679320001742,229.54679320001742,,,VAG,001,2023-05-06_18h26.28.753,trial uncanny,2022.2.5,59.286346529918546,
Mechanical,LSF,Stimuli For Psychopy\Robotic\matched-8-cpi-low-c10.jpeg,matched-8-cpi-low-c10.jpeg,0,57,57,60,,,,,,,231.93212230002973,231.93212230002973,1,[0.0005082999705336988],[1.013186099997256],7.592592592592595,0.43277260003378615,1.580000389367342e-05,232.9469380999799,232.9469380999799,,,VAG,001,2023-05-06_18h26.28.753,trial uncanny,2022.2.5,59.286346529918546,
Mechanical,HSF,Stimuli For Psychopy\Robotic\matched-32-cpi-low-c43.jpeg,matched-32-cpi-low-c43.jpeg,0,58,58,81,,,,,,,235.19878739997512,235.19878739997512,1,[0.0004455000162124634],[0.996796399995219],24.814814814814817,0.8474811000050977,1.2700038496404886e-05,236.19872970000142,236.19872970000142,,,VAG,001,2023-05-06_18h26.28.753,trial uncanny,2022.2.5,59.286346529918546,
Humanoid,LSF,Stimuli For Psychopy\Robotic\matched-8-cpi-low-c76.jpeg,matched-8-cpi-low-c76.jpeg,0,59,59,27,,,,,,,240.7986129000201,240.7986129000201,1,[0.0005402000388130546],[0.9973804000183009],30.37037037037037,0.5811123999883421,1.799996243789792e-05,241.79914199997438,241.79914199997438,,,VAG,001,2023-05-06_18h26.28.753,trial uncanny,2022.2.5,59.286346529918546,
Humanoid,BSF,Stimuli For Psychopy\Robotic\matched-c74.jpeg,matched-c74.jpeg,0,60,60,11,,,,,,,244.36824019998312,244.36824019998312,2,"[0.0004217000096105039, 0.11297420004848391]","[0.013188700017053634, 0.9919856000342406]",34.351851851851855,0.3150350999785587,1.3299984857439995e-05,,,,,VAG,001,2023-05-06_18h26.28.753,trial uncanny,2022.2.5,59.286346529918546,
Humanoid,BSF,Stimuli For Psychopy\Robotic\matched-c58.jpeg,matched-c58.jpeg,0,61,61,1,,,,,,,247.4467885000049,247.4467885000049,1,[0.013647700019646436],[1.0117310999776237],25.74074074074074,0.43222550000064075,1.2399978004395962e-05,248.44640940002864,248.44640940002864,,,VAG,001,2023-05-06_18h26.28.753,trial uncanny,2022.2.5,59.286346529918546,
Mechanical,LSF,Stimuli For Psychopy\Robotic\matched-8-cpi-low-c27.jpeg,matched-8-cpi-low-c27.jpeg,0,62,62,67,,,,,,,250.64860820001923,250.64860820001923,1,[0.00036810000892728567],[0.9968739000032656],1.5740740740740722,0.3990336999995634,1.3399985618889332e-05,251.64640199998394,251.64640199998394,,,VAG,001,2023-05-06_18h26.28.753,trial uncanny,2022.2.5,59.286346529918546,
Mechanical,BSF,Stimuli For Psychopy\Robotic\matched-c16.jpeg,matched-c16.jpeg,0,63,63,49,,,,,,,254.13166200002888,254.13166200002888,1,[0.0005729999975301325],[0.9968515000073239],8.888888888888891,0.5829647000064142,1.2800039257854223e-05,255.12966269999743,255.12966269999743,,,VAG,001,2023-05-06_18h26.28.753,trial uncanny,2022.2.5,59.286346529918546,
Mechanical,LSF,Stimuli For Psychopy\Robotic\matched-8-cpi-low-c17.jpeg,matched-8-cpi-low-c17.jpeg,0,64,64,65,,,,,,,257.4679395999992,257.4679395999992,1,[0.00035859999479725957],[1.0103223000187427],7.4074074074074066,0.4159531000186689,1.2500036973506212e-05,258.47963630000595,258.47963630000595,,,VAG,001,2023-05-06_18h26.28.753,trial uncanny,2022.2.5,59.286346529918546,
Humanoid,BSF,Stimuli For Psychopy\Robotic\matched-c48.jpeg,matched-c48.jpeg,0,65,65,0,,,,,,,260.71475360001205,260.71475360001205,1,[0.013981399999465793],[1.0118608000339009],9.537037037037038,0.5478108000243083,1.2400036212056875e-05,,,,,VAG,001,2023-05-06_18h26.28.753,trial uncanny,2022.2.5,59.286346529918546,
Humanoid,LSF,Stimuli For Psychopy\Robotic\matched-8-cpi-low-c72.jpeg,matched-8-cpi-low-c72.jpeg,0,66,66,25,,,,,,,264.0647261000122,264.0647261000122,1,[0.00046009995276108384],[0.9969581000041217],2.4074074074074083,0.6188189000240527,1.4699995517730713e-05,265.0626718000276,265.0626718000276,,,VAG,001,2023-05-06_18h26.28.753,trial uncanny,2022.2.5,59.286346529918546,
Mechanical,BSF,Stimuli For Psychopy\Robotic\matched-c33.jpeg,matched-c33.jpeg,0,67,67,53,,,,,,,267.46477560000494,267.46477560000494,1,[0.014767699991352856],[1.0150317000225186],0.8333333333333359,0.6995164999971166,1.2699980288743973e-05,268.4625361000071,268.4625361000071,,,VAG,001,2023-05-06_18h26.28.753,trial uncanny,2022.2.5,59.286346529918546,
Humanoid,HSF,Stimuli For Psychopy\Robotic\matched-32-cpi-low-c58.jpeg,matched-32-cpi-low-c58.jpeg,0,68,68,31,,,,,,,271.1509660999873,271.1509660999873,1,[0.00034139998024329543],[1.0100298000033945],3.3333333333333326,0.7660135999904014,1.2599979527294636e-05,272.16257749998476,272.16257749998476,,,VAG,001,2023-05-06_18h26.28.753,trial uncanny,2022.2.5,59.286346529918546,
Mechanical,LSF,Stimuli For Psychopy\Robotic\matched-8-cpi-low-c38.jpeg,matched-8-cpi-low-c38.jpeg,0,69,69,72,,,,,,,274.81449910002993,274.81449910002993,1,[0.00041989999590441585],[0.9801797000109218],13.425925925925924,0.9362797000212595,1.2800039257854223e-05,,,,,VAG,001,2023-05-06_18h26.28.753,trial uncanny,2022.2.5,59.286346529918546,
Mechanical,HSF,Stimuli For Psychopy\Robotic\matched-32-cpi-low-c11.jpeg,matched-32-cpi-low-c11.jpeg,0,70,70,76,,,,,,,278.56439610000234,278.56439610000234,1,[0.013124999997671694],[1.0129717999952845],1.3888888888888895,0.3497221000143327,1.2400036212056875e-05,279.5624893999775,279.5624893999775,,,VAG,001,2023-05-06_18h26.28.753,trial uncanny,2022.2.5,59.286346529918546,
Mechanical,LSF,Stimuli For Psychopy\Robotic\matched-8-cpi-low-c33.jpeg,matched-8-cpi-low-c33.jpeg,0,71,71,68,,,,,,,281.7839980000281,281.7839980000281,3,"[0.00046800001291558146, 0.29317710001487285, 0.6597377000143752]","[0.2432327000424266, 0.49299080000491813, 1.0080277000088245]",7.4074074074074066,0.41783790005138144,1.479999627918005e-05,282.79761399998097,282.79761399998097,,,VAG,001,2023-05-06_18h26.28.753,trial uncanny,2022.2.5,59.286346529918546,
Humanoid,LSF,Stimuli For Psychopy\Robotic\matched-8-cpi-low-c74.jpeg,matched-8-cpi-low-c74.jpeg,0,72,72,26,,,,,,,285.0312642999925,285.0312642999925,2,"[0.01334479998331517, 0.6129080000100657]","[0.4798004999756813, 1.0131104000029154]",3.888888888888886,0.7026168999727815,1.1399970389902592e-05,286.030835499987,286.030835499987,,,VAG,001,2023-05-06_18h26.28.753,trial uncanny,2022.2.5,59.286346529918546,
Mechanical,HSF,Stimuli For Psychopy\Robotic\matched-32-cpi-low-c16.jpeg,matched-32-cpi-low-c16.jpeg,0,73,73,79,,,,,,,288.53083900001366,288.53083900001366,1,[0.01358169998275116],[1.0119811000186019],3.518518518518521,0.44809710001572967,1.209997572004795e-05,,,,,VAG,001,2023-05-06_18h26.28.753,trial uncanny,2022.2.5,59.286346529918546,
Humanoid,BSF,Stimuli For Psychopy\Robotic\matched-c69.jpeg,matched-c69.jpeg,0,74,74,8,,,,,,,292.21404880000046,292.21404880000046,1,[0.000381799996830523],[0.9968041999964043],58.7037037037037,0.8371060999925248,1.2699980288743973e-05,,,,,VAG,001,2023-05-06_18h26.28.753,trial uncanny,2022.2.5,59.286346529918546,
Mechanical,BSF,Stimuli For Psychopy\Robotic\matched-c36.jpeg,matched-c36.jpeg,0,75,75,55,,,,,,,295.8639485000167,295.8639485000167,1,[0.013565199973527342],[1.0134319000062533],4.351851851851851,0.3662359000300057,1.3399985618889332e-05,296.86388840002473,296.86388840002473,,,VAG,001,2023-05-06_18h26.28.753,trial uncanny,2022.2.5,59.286346529918546,
Humanoid,BSF,Stimuli For Psychopy\Robotic\matched-c71.jpeg,matched-c71.jpeg,0,76,76,9,,,,,,,299.0169380999869,299.0169380999869,1,[0.00035390001721680164],[1.0104020000435412],42.77777777777778,0.9522671999875456,1.6200006939470768e-05,300.0284332999727,300.0284332999727,,,VAG,001,2023-05-06_18h26.28.753,trial uncanny,2022.2.5,59.286346529918546,
Humanoid,LSF,Stimuli For Psychopy\Robotic\matched-8-cpi-low-c48.jpeg,matched-8-cpi-low-c48.jpeg,0,77,77,15,,,,,,,302.8785980999819,302.8785980999819,4,"[0.0003749000024981797, 0.5327899000258185, 0.6833975000190549, 0.8781595000182278]","[0.46601790003478527, 0.6164640000206418, 0.8634982000221498, 0.978074100043159]",4.999999999999999,0.39911519997986034,1.3100041542202234e-05,303.8782959000091,303.8782959000091,,,VAG,001,2023-05-06_18h26.28.753,trial uncanny,2022.2.5,59.286346529918546,
Humanoid,BSF,Stimuli For Psychopy\Robotic\matched-c65.jpeg,matched-c65.jpeg,0,78,78,5,,,,,,,306.06387399998493,306.06387399998493,1,[0.01138749998062849],[1.0133890999713913],52.68518518518519,1.382915900030639,2.169999061152339e-05,307.06359219999285,307.06359219999285,,,VAG,001,2023-05-06_18h26.28.753,trial uncanny,2022.2.5,59.286346529918546,
Humanoid,HSF,Stimuli For Psychopy\Robotic\matched-32-cpi-low-c65.jpeg,matched-32-cpi-low-c65.jpeg,0,79,79,35,,,,,,,310.4838971000281,310.4838971000281,1,[0.00043869996443390846],[0.9932479999843054],44.62962962962963,0.3816268999944441,1.3699987903237343e-05,,,,,VAG,001,2023-05-06_18h26.28.753,trial uncanny,2022.2.5,59.286346529918546,
Mechanical,BSF,Stimuli For Psychopy\Robotic\matched-c43.jpeg,Matched-c43.jpeg,0,80,80,51,,,,,,,313.64694320003036,313.64694320003036,2,"[0.030283299973234534, 0.5969687000033446]","[0.5635296999826096, 0.9971924999845214]",2.4074074074074083,2.132343999983277,1.2100033927708864e-05,314.6448761000065,314.6448761000065,,,VAG,001,2023-05-06_18h26.28.753,trial uncanny,2022.2.5,59.286346529918546,
Humanoid,HSF,Stimuli For Psychopy\Robotic\matched-32-cpi-low-c67.jpeg,matched-32-cpi-low-c67.jpeg,0,81,81,37,,,,,,,318.5637589999824,318.5637589999824,1,[0.0004835000145249069],[0.9948718000086956],64.35185185185185,0.8034707000479102,1.2699980288743973e-05,,,,,VAG,001,2023-05-06_18h26.28.753,trial uncanny,2022.2.5,59.286346529918546,
Humanoid,LSF,Stimuli For Psychopy\Robotic\matched-8-cpi-low-c67.jpeg,matched-8-cpi-low-c67.jpeg,0,82,82,22,,,,,,,322.1133765000268,322.1133765000268,1,[0.0003664999967440963],[0.997183000028599],29.629629629629626,0.2519325999892317,1.2500036973506212e-05,323.11117300001206,323.11117300001206,,,VAG,001,2023-05-06_18h26.28.753,trial uncanny,2022.2.5,59.286346529918546,
Humanoid,HSF,Stimuli For Psychopy\Robotic\matched-32-cpi-low-c64.jpeg,matched-32-cpi-low-c64.jpeg,0,83,83,34,,,,,,,325.1466939999955,325.1466939999955,1,[0.013456500018946826],[1.0129493999993429],14.814814814814813,0.4996261000051163,1.2899981811642647e-05,326.1465533999726,326.1465533999726,,,VAG,001,2023-05-06_18h26.28.753,trial uncanny,2022.2.5,59.286346529918546,
Humanoid,LSF,Stimuli For Psychopy\Robotic\matched-8-cpi-low-c69.jpeg,matched-8-cpi-low-c69.jpeg,0,84,84,23,,,,,,,328.4612655999954,328.4612655999954,1,[0.015557600010652095],[0.9988679999951273],24.444444444444446,0.7154449999798089,1.5300000086426735e-05,,,,,VAG,001,2023-05-06_18h26.28.753,trial uncanny,2022.2.5,59.286346529918546,
Humanoid,HSF,Stimuli For Psychopy\Robotic\matched-32-cpi-low-c77.jpeg,matched-32-cpi-low-c77.jpeg,0,85,85,43,,,,,,,331.9465121999965,331.9465121999965,1,[0.0004050999996252358],[0.99468900001375],53.7962962962963,0.5528473999584094,2.010003663599491e-05,,,,,VAG,001,2023-05-06_18h26.28.753,trial uncanny,2022.2.5,59.286346529918546,
Humanoid,HSF,Stimuli For Psychopy\Robotic\matched-32-cpi-low-c76.jpeg,matched-32-cpi-low-c76.jpeg,0,86,86,42,,,,,,,335.2964369999827,335.2964369999827,1,[0.013119300012476742],[1.0130593000212684],54.53703703703704,0.3667699999641627,1.2399978004395962e-05,336.29453339998145,336.29453339998145,,,VAG,001,2023-05-06_18h26.28.753,trial uncanny,2022.2.5,59.286346529918546,
Mechanical,BSF,Stimuli For Psychopy\Robotic\matched-c12.jpeg,matched-c12.jpeg,0,87,87,47,,,,,,,338.3964323999826,338.3964323999826,1,[0.013935199996922165],[1.0140130000072531],2.962962962962962,0.8690943999681622,1.2499978765845299e-05,339.3963128000032,339.3963128000032,,,VAG,001,2023-05-06_18h26.28.753,trial uncanny,2022.2.5,59.286346529918546,
Humanoid,LSF,Stimuli For Psychopy\Robotic\matched-8-cpi-low-c66.jpeg,matched-8-cpi-low-c66.jpeg,0,88,88,21,,,,,,,342.3826686000102,342.3826686000102,1,[0.0004406999796628952],[1.0089552999706939],24.35185185185185,0.7155140999821015,1.3800046872347593e-05,343.3942171999952,343.3942171999952,,,VAG,001,2023-05-06_18h26.28.753,trial uncanny,2022.2.5,59.286346529918546,
Mechanical,LSF,Stimuli For Psychopy\Robotic\matched-8-cpi-low-c12.jpeg,matched-8-cpi-low-c12.jpeg,0,89,89,62,,,,,,,345.9295081999735,345.9295081999735,1,[0.0004103000392206013],[0.995229099993594],6.203703703703706,0.4812079000403173,1.4300050679594278e-05,,,,,VAG,001,2023-05-06_18h26.28.753,trial uncanny,2022.2.5,59.286346529918546,
,,,,,,,,,,,,,,,,,,,,,,,,0.015431300038471818,1.0289539000368677,,,,,,,
