Type,Spatial_Frequency,filepath,file_name,robotic_trials.thisRepN,robotic_trials.thisTrialN,robotic_trials.thisN,robotic_trials.thisIndex,instruction.started,key_resp.started,key_resp.keys,key_resp.rt,etRecord.started,etRecord.stopped,Robotic__Stimuli.started,roi.started,Robotic__Stimuli.stopped,roi.stopped,roi.numLooks,roi.timesOn,roi.timesOff,Likebility_slider_3.response,Likebility_slider_3.rt,ISI_2.started,etRecord_2.started,etRecord_2.stopped,participant,session,date,expName,psychopyVersion,frameRate,
,,,,,,,,34.50683659996139,34.50683659996139,space,1.1646430999971926,,,,,,,,,,,,,,,TEP,001,2023-05-06_17h27.21.173,trial uncanny,2022.2.5,60.065327050663456,
Mechanical,LSF,Stimuli For Psychopy\Robotic\matched-8-cpi-low-c42.jpeg,matched-8-cpi-low-c42.jpeg,0,0,0,74,,,,,1.2800039257854223e-05,1.2800039257854223e-05,36.6964865999762,36.6964865999762,37.69629950000672,37.69629950000672,1,[0.0005508000031113625],[0.9906067000119947],25.0,1.499799899989739,1.3199984095990658e-05,,,TEP,001,2023-05-06_17h27.21.173,trial uncanny,2022.2.5,60.065327050663456,
Humanoid,LSF,Stimuli For Psychopy\Robotic\matched-8-cpi-low-c76.jpeg,matched-8-cpi-low-c76.jpeg,0,1,1,27,,,,,,,41.031930700002704,41.031930700002704,42.03203309996752,42.03203309996752,1,[0.0003992000129073858],[0.996693100023549],-21.48148148148148,1.6165101999649778,1.190003240481019e-05,,,TEP,001,2023-05-06_17h27.21.173,trial uncanny,2022.2.5,60.065327050663456,
Humanoid,HSF,Stimuli For Psychopy\Robotic\matched-32-cpi-low-c74.jpeg,matched-32-cpi-low-c74.jpeg,0,2,2,41,,,,,,,45.46813519997522,45.46813519997522,46.47975379996933,46.47975379996933,1,[0.00039739999920129776],[1.0102766000200063],-19.629629629629633,0.6804832000052556,1.1899974197149277e-05,,,TEP,001,2023-05-06_17h27.21.173,trial uncanny,2022.2.5,60.065327050663456,
Mechanical,BSF,Stimuli For Psychopy\Robotic\matched-c10.jpeg,matched-c10.jpeg,0,3,3,45,,,,,,,48.99854589998722,48.99854589998722,49.99628919997485,49.99628919997485,1,[0.0004097999772056937],[0.9963438999839127],-57.77777777777777,0.5492843000101857,1.580000389367342e-05,,,TEP,001,2023-05-06_17h27.21.173,trial uncanny,2022.2.5,60.065327050663456,
Mechanical,BSF,Stimuli For Psychopy\Robotic\matched-c42.jpeg,matched-c42.jpeg,0,4,4,59,,,,,,,52.39824539999245,52.39824539999245,53.396192999964114,53.396192999964114,1,[0.0004692000220529735],[0.9963903999887407],46.85185185185185,0.3860933000105433,1.550000160932541e-05,,,TEP,001,2023-05-06_17h27.21.173,trial uncanny,2022.2.5,60.065327050663456,
Mechanical,LSF,Stimuli For Psychopy\Robotic\matched-8-cpi-low-c41.jpeg,matched-8-cpi-low-c41.jpeg,0,5,5,73,,,,,,,55.581527500005905,55.581527500005905,,,1,[0.013593900017440319],[1.0124945000279695],54.074074074074076,0.43310439999913797,1.1999974958598614e-05,,,TEP,001,2023-05-06_17h27.21.173,trial uncanny,2022.2.5,60.065327050663456,
Mechanical,BSF,Stimuli For Psychopy\Robotic\matched-c17.jpeg,matched-c17.jpeg,0,6,6,50,,,,,,,58.7676647999906,58.7676647999906,59.78145529999165,59.78145529999165,1,[0.00038159999530762434],[1.010176900017541],7.592592592592595,0.6477451000246219,1.2200034689158201e-05,,,TEP,001,2023-05-06_17h27.21.173,trial uncanny,2022.2.5,60.065327050663456,
Mechanical,HSF,Stimuli For Psychopy\Robotic\matched-32-cpi-low-c11.jpeg,matched-32-cpi-low-c11.jpeg,0,7,7,76,,,,,,,62.19823949999409,62.19823949999409,63.195912099967245,63.195912099967245,1,[0.0003234000178053975],[0.9969886000035331],-52.22222222222223,0.7853409000090323,1.190003240481019e-05,,,TEP,001,2023-05-06_17h27.21.173,trial uncanny,2022.2.5,60.065327050663456,
Humanoid,BSF,Stimuli For Psychopy\Robotic\matched-c64.jpeg,matched-c64.jpeg,0,8,8,4,,,,,,,65.84807209996507,65.84807209996507,,,1,[0.013516200007870793],[1.0118067000294104],-89.07407407407408,2.066924899991136,1.2599979527294636e-05,,,TEP,001,2023-05-06_17h27.21.173,trial uncanny,2022.2.5,60.065327050663456,
Mechanical,LSF,Stimuli For Psychopy\Robotic\matched-8-cpi-low-c27.jpeg,matched-8-cpi-low-c27.jpeg,0,9,9,67,,,,,,,70.83411559998058,70.83411559998058,71.84575039998163,71.84575039998163,1,[0.00037180003710091114],[1.0104128000093624],-67.96296296296296,0.780121700023301,1.4099990949034691e-05,,,TEP,001,2023-05-06_17h27.21.173,trial uncanny,2022.2.5,60.065327050663456,
Mechanical,HSF,Stimuli For Psychopy\Robotic\matched-32-cpi-low-c16.jpeg,matched-32-cpi-low-c16.jpeg,0,10,10,79,,,,,,,74.4788705999963,74.4788705999963,75.47895560000325,75.47895560000325,1,[0.0004404000355862081],[0.9964949000277556],-50.74074074074074,0.4324198000249453,1.3299984857439995e-05,,,TEP,001,2023-05-06_17h27.21.173,trial uncanny,2022.2.5,60.065327050663456,
Humanoid,BSF,Stimuli For Psychopy\Robotic\matched-c71.jpeg,matched-c71.jpeg,0,11,11,9,,,,,,,77.73100189998513,77.73100189998513,78.72887930000434,78.72887930000434,1,[0.0003557000309228897],[0.9981652999995276],18.148148148148152,2.130263599974569,1.3299984857439995e-05,,,TEP,001,2023-05-06_17h27.21.173,trial uncanny,2022.2.5,60.065327050663456,
Mechanical,HSF,Stimuli For Psychopy\Robotic\matched-32-cpi-low-c37.jpeg,matched-32-cpi-low-c37.jpeg,0,12,12,86,,,,,,,82.68090149998898,82.68090149998898,83.6788618999999,83.6788618999999,1,[0.00046549999387934804],[0.9970322000444867],-61.111111111111114,0.44982929999241605,1.2899981811642647e-05,,,TEP,001,2023-05-06_17h27.21.173,trial uncanny,2022.2.5,60.065327050663456,
Mechanical,HSF,Stimuli For Psychopy\Robotic\matched-32-cpi-low-c43.jpeg,matched-32-cpi-low-c43.jpeg,0,13,13,81,,,,,,,85.99758079997264,85.99758079997264,86.99550369998906,86.99550369998906,1,[0.0004042999935336411],[0.9966121999896131],-60.370370370370374,0.40267499996116385,1.1999974958598614e-05,,,TEP,001,2023-05-06_17h27.21.173,trial uncanny,2022.2.5,60.065327050663456,
Humanoid,BSF,Stimuli For Psychopy\Robotic\matched-c61.jpeg,matched-c61.jpeg,0,14,14,2,,,,,,,89.23074559995439,89.23074559995439,90.2310311999754,90.2310311999754,1,[0.011604300001636147],[1.013323399994988],-85.18518518518519,0.5995594000560232,1.3199984095990658e-05,,,TEP,001,2023-05-06_17h27.21.173,trial uncanny,2022.2.5,60.065327050663456,
Humanoid,LSF,Stimuli For Psychopy\Robotic\matched-8-cpi-low-c63.jpeg,matched-8-cpi-low-c63.jpeg,0,15,15,18,,,,,,,92.9170269999886,92.9170269999886,93.92851539998082,93.92851539998082,1,[0.0003914999542757869],[1.0101167999673635],-53.888888888888886,0.41408630000660196,1.2399978004395962e-05,,,TEP,001,2023-05-06_17h27.21.173,trial uncanny,2022.2.5,60.065327050663456,
Mechanical,BSF,Stimuli For Psychopy\Robotic\matched-c38.jpeg,matched-c38.jpeg,0,16,16,57,,,,,,,96.18064739997499,96.18064739997499,,,1,[0.00033760000951588154],[0.9951574999722652],-62.59259259259259,0.7180896000354551,1.2999982573091984e-05,,,TEP,001,2023-05-06_17h27.21.173,trial uncanny,2022.2.5,60.065327050663456,
Humanoid,HSF,Stimuli For Psychopy\Robotic\matched-32-cpi-low-c64.jpeg,matched-32-cpi-low-c64.jpeg,0,17,17,34,,,,,,,99.74712769995676,99.74712769995676,100.74520509998547,100.74520509998547,1,[0.013219700020272285],[1.0127725999918766],-50.0,0.3998111999826506,1.3299984857439995e-05,,,TEP,001,2023-05-06_17h27.21.173,trial uncanny,2022.2.5,60.065327050663456,
Mechanical,LSF,Stimuli For Psychopy\Robotic\matched-8-cpi-low-c10.jpeg,matched-8-cpi-low-c10.jpeg,0,18,18,60,,,,,,,102.98050780000631,102.98050780000631,103.98051269998541,103.98051269998541,1,[0.01106609997805208],[1.0132774999947287],38.888888888888886,0.3992490000091493,1.190003240481019e-05,,,TEP,001,2023-05-06_17h27.21.173,trial uncanny,2022.2.5,60.065327050663456,
Humanoid,LSF,Stimuli For Psychopy\Robotic\matched-8-cpi-low-c71.jpeg,matched-8-cpi-low-c71.jpeg,0,19,19,24,,,,,,,106.1136256000027,106.1136256000027,,,1,[0.00047339999582618475],[0.9947179000009783],53.14814814814815,0.5671978999744169,1.2399978004395962e-05,,,TEP,001,2023-05-06_17h27.21.173,trial uncanny,2022.2.5,60.065327050663456,
Mechanical,HSF,Stimuli For Psychopy\Robotic\matched-32-cpi-low-c38.jpeg,matched-32-cpi-low-c38.jpeg,0,20,20,87,,,,,,,110.29996380000375,110.29996380000375,111.31345899996813,111.31345899996813,1,[0.0004687000182457268],[1.0100945999729447],23.703703703703695,0.4161339000565931,1.190003240481019e-05,,,TEP,001,2023-05-06_17h27.21.173,trial uncanny,2022.2.5,60.065327050663456,
Mechanical,BSF,Stimuli For Psychopy\Robotic\matched-c16.jpeg,matched-c16.jpeg,0,21,21,49,,,,,,,113.49682699999539,113.49682699999539,114.49468770000385,114.49468770000385,1,[0.0004320000298321247],[0.9970588000142016],32.40740740740739,0.535794299968984,1.4500052202492952e-05,,,TEP,001,2023-05-06_17h27.21.173,trial uncanny,2022.2.5,60.065327050663456,
Humanoid,BSF,Stimuli For Psychopy\Robotic\matched-c77.jpeg,matched-c77.jpeg,0,22,22,13,,,,,,,116.79676749999635,116.79676749999635,117.79475329996785,117.79475329996785,1,[0.0007104999967850745],[0.997055999992881],93.5185185185185,0.7478675000020303,1.2299977242946625e-05,,,TEP,001,2023-05-06_17h27.21.173,trial uncanny,2022.2.5,60.065327050663456,
Mechanical,HSF,Stimuli For Psychopy\Robotic\matched-32-cpi-low-c41.jpeg,matched-32-cpi-low-c41.jpeg,0,23,23,88,,,,,,,120.76630119996844,120.76630119996844,121.77998339995975,121.77998339995975,1,[0.0004988000146113336],[1.0102316000266],-17.962962962962962,0.21366059995489195,1.4099990949034691e-05,,,TEP,001,2023-05-06_17h27.21.173,trial uncanny,2022.2.5,60.065327050663456,
Mechanical,HSF,Stimuli For Psychopy\Robotic\matched-32-cpi-low-c14.jpeg,matched-32-cpi-low-c14.jpeg,0,24,24,78,,,,,,,123.7965960999718,123.7965960999718,124.79449569998542,124.79449569998542,1,[0.00036479998379945755],[0.9964566999697126],44.074074074074076,1.6162104000104591,1.1599971912801266e-05,,,TEP,001,2023-05-06_17h27.21.173,trial uncanny,2022.2.5,60.065327050663456,
Humanoid,LSF,Stimuli For Psychopy\Robotic\matched-8-cpi-low-c58.jpeg,matched-8-cpi-low-c58.jpeg,0,25,25,16,,,,,,,128.19941259996267,128.19941259996267,129.2129875999526,129.2129875999526,1,[0.00042150000808760524],[1.0099664000445046],-72.77777777777777,0.39968500001123175,1.2399978004395962e-05,,,TEP,001,2023-05-06_17h27.21.173,trial uncanny,2022.2.5,60.065327050663456,
Humanoid,BSF,Stimuli For Psychopy\Robotic\matched-c65.jpeg,matched-c65.jpeg,0,26,26,5,,,,,,,131.7298971999553,131.7298971999553,,,1,[0.0003510000533424318],[0.9945485000498593],4.629629629629633,1.003098500019405,1.2399978004395962e-05,,,TEP,001,2023-05-06_17h27.21.173,trial uncanny,2022.2.5,60.065327050663456,
Humanoid,HSF,Stimuli For Psychopy\Robotic\matched-32-cpi-low-c63.jpeg,matched-32-cpi-low-c63.jpeg,0,27,27,33,,,,,,,135.5612738999771,135.5612738999771,136.56103339995025,136.56103339995025,1,[0.000792000035289675],[0.9968669000081718],15.18518518518519,1.5523551999940537,1.2499978765845299e-05,,,TEP,001,2023-05-06_17h27.21.173,trial uncanny,2022.2.5,60.065327050663456,
Humanoid,BSF,Stimuli For Psychopy\Robotic\matched-c66.jpeg,matched-c66.jpeg,0,28,28,6,,,,,,,139.94621449999977,139.94621449999977,140.9441511000041,140.9441511000041,1,[0.013022999977692962],[1.0132841999875382],16.296296296296305,0.4488955999840982,1.379998866468668e-05,,,TEP,001,2023-05-06_17h27.21.173,trial uncanny,2022.2.5,60.065327050663456,
Mechanical,HSF,Stimuli For Psychopy\Robotic\matched-32-cpi-low-c33.jpeg,matched-32-cpi-low-c33.jpeg,0,29,29,83,,,,,,,143.56081809999887,143.56081809999887,144.5626432999852,144.5626432999852,1,[0.00036500004353001714],[0.997028500016313],20.925925925925924,0.6834316999884322,1.4699995517730713e-05,,,TEP,001,2023-05-06_17h27.21.173,trial uncanny,2022.2.5,60.065327050663456,
Mechanical,LSF,Stimuli For Psychopy\Robotic\matched-8-cpi-low-c12.jpeg,matched-8-cpi-low-c12.jpeg,0,30,30,62,,,,,,,147.02978629997233,147.02978629997233,148.02737409999827,148.02737409999827,1,[0.0004031999851576984],[0.9964893999858759],14.999999999999986,0.6164933000109158,1.2399978004395962e-05,,,TEP,001,2023-05-06_17h27.21.173,trial uncanny,2022.2.5,60.065327050663456,
Mechanical,LSF,Stimuli For Psychopy\Robotic\matched-8-cpi-low-c11.jpeg,matched-8-cpi-low-c11.jpeg,0,31,31,61,,,,,,,150.3823252999573,150.3823252999573,151.39375489996746,151.39375489996746,1,[0.0004949000431224704],[1.0103326000389643],-28.148148148148138,0.6158330999896862,1.3299984857439995e-05,,,TEP,001,2023-05-06_17h27.21.173,trial uncanny,2022.2.5,60.065327050663456,
Humanoid,HSF,Stimuli For Psychopy\Robotic\matched-32-cpi-low-c76.jpeg,matched-32-cpi-low-c76.jpeg,0,32,32,42,,,,,,,153.81264039996313,153.81264039996313,154.81233509996673,154.81233509996673,1,[0.00034829997457563877],[0.996600899961777],-27.592592592592595,1.830766000028234,1.160003012046218e-05,,,TEP,001,2023-05-06_17h27.21.173,trial uncanny,2022.2.5,60.065327050663456,
Humanoid,BSF,Stimuli For Psychopy\Robotic\matched-c76.jpeg,matched-c76.jpeg,0,33,33,12,,,,,,,158.46257899998454,158.46257899998454,,,1,[0.013847900030668825],[1.0124090000172146],34.81481481481481,0.3502316999947652,1.5900004655122757e-05,,,TEP,001,2023-05-06_17h27.21.173,trial uncanny,2022.2.5,60.065327050663456,
Humanoid,BSF,Stimuli For Psychopy\Robotic\matched-c69.jpeg,matched-c69.jpeg,0,34,34,8,,,,,,,161.56246939999983,161.56246939999983,162.56230890000006,162.56230890000006,1,[0.00032729998929426074],[0.9968047000002116],17.407407407407405,1.5995741999940947,1.2699980288743973e-05,,,TEP,001,2023-05-06_17h27.21.173,trial uncanny,2022.2.5,60.065327050663456,
Humanoid,LSF,Stimuli For Psychopy\Robotic\matched-8-cpi-low-c48.jpeg,matched-8-cpi-low-c48.jpeg,0,35,35,15,,,,,,,165.98196199996164,165.98196199996164,,,1,[0.00032400002237409353],[0.9941251000273041],-55.925925925925924,0.7665820000111125,1.5400000847876072e-05,,,TEP,001,2023-05-06_17h27.21.173,trial uncanny,2022.2.5,60.065327050663456,
Humanoid,HSF,Stimuli For Psychopy\Robotic\matched-32-cpi-low-c77.jpeg,matched-32-cpi-low-c77.jpeg,0,36,36,43,,,,,,,169.54550379997818,169.54550379997818,170.54348379996372,170.54348379996372,1,[0.000667200016323477],[0.9967940000351518],31.666666666666657,0.8327840000274591,1.2200034689158201e-05,,,TEP,001,2023-05-06_17h27.21.173,trial uncanny,2022.2.5,60.065327050663456,
Mechanical,LSF,Stimuli For Psychopy\Robotic\matched-8-cpi-low-c16.jpeg,matched-8-cpi-low-c16.jpeg,0,37,37,64,,,,,,,173.13186289998703,173.13186289998703,,,1,[0.00047259998973459005],[0.9934052999597043],-21.851851851851862,0.6834883000119589,1.3400043826550245e-05,,,TEP,001,2023-05-06_17h27.21.173,trial uncanny,2022.2.5,60.065327050663456,
Mechanical,BSF,Stimuli For Psychopy\Robotic\matched-c27.jpeg,matched-c27.jpeg,0,38,38,52,,,,,,,176.64550439995946,176.64550439995946,177.6453801000025,177.6453801000025,1,[0.0004273999948054552],[0.9967500999919139],-36.48148148148148,0.785683499998413,1.2400036212056875e-05,,,TEP,001,2023-05-06_17h27.21.173,trial uncanny,2022.2.5,60.065327050663456,
Mechanical,HSF,Stimuli For Psychopy\Robotic\matched-32-cpi-low-c12.jpeg,matched-32-cpi-low-c12.jpeg,0,39,39,77,,,,,,,180.4785833999631,180.4785833999631,181.47633099998347,181.47633099998347,1,[0.013913600007072091],[1.0136180000263266],-28.148148148148138,0.39961999998195097,1.2200034689158201e-05,,,TEP,001,2023-05-06_17h27.21.173,trial uncanny,2022.2.5,60.065327050663456,
Mechanical,BSF,Stimuli For Psychopy\Robotic\matched-c37.jpeg,matched-c37.jpeg,0,40,40,56,,,,,,,183.64535619999515,183.64535619999515,184.64532919996418,184.64532919996418,1,[0.01338350004516542],[1.0133048000279814],27.222222222222214,0.8190892999991775,1.2699980288743973e-05,,,TEP,001,2023-05-06_17h27.21.173,trial uncanny,2022.2.5,60.065327050663456,
Mechanical,HSF,Stimuli For Psychopy\Robotic\matched-32-cpi-low-c27.jpeg,matched-32-cpi-low-c27.jpeg,0,41,41,82,,,,,,,187.19522379996488,187.19522379996488,188.19502359995386,188.19502359995386,1,[0.00040690001333132386],[0.996789800003171],48.14814814814815,0.5521423000027426,1.3699987903237343e-05,,,TEP,001,2023-05-06_17h27.21.173,trial uncanny,2022.2.5,60.065327050663456,
Mechanical,BSF,Stimuli For Psychopy\Robotic\matched-c12.jpeg,matched-c12.jpeg,0,42,42,47,,,,,,,190.49500539997825,190.49500539997825,191.49521749996347,191.49521749996347,1,[0.013547199952881783],[1.0132593999733217],51.66666666666666,0.23304959997767583,1.4000048395246267e-05,,,TEP,001,2023-05-06_17h27.21.173,trial uncanny,2022.2.5,60.065327050663456,
Humanoid,HSF,Stimuli For Psychopy\Robotic\matched-32-cpi-low-c79.jpeg,matched-32-cpi-low-c79.jpeg,0,43,43,44,,,,,,,193.7595772999921,193.7595772999921,194.76162599999225,194.76162599999225,1,[0.0003722999827004969],[0.996588799986057],84.07407407407408,0.39751879998948425,1.8300022929906845e-05,,,TEP,001,2023-05-06_17h27.21.173,trial uncanny,2022.2.5,60.065327050663456,
Mechanical,HSF,Stimuli For Psychopy\Robotic\matched-32-cpi-low-c35.jpeg,matched-32-cpi-low-c35.jpeg,0,44,44,84,,,,,,,196.89494440000271,196.89494440000271,,,1,[0.0003858999698422849],[0.979436399997212],15.18518518518519,0.46665900002699345,1.2999982573091984e-05,,,TEP,001,2023-05-06_17h27.21.173,trial uncanny,2022.2.5,60.065327050663456,
Mechanical,LSF,Stimuli For Psychopy\Robotic\matched-8-cpi-low-c36.jpeg,matched-8-cpi-low-c36.jpeg,0,45,45,70,,,,,,,200.1281703999848,200.1281703999848,201.12806479999563,201.12806479999563,1,[0.00035259994911029935],[0.9971806999528781],-23.70370370370371,0.6522192999836989,1.6200006939470768e-05,,,TEP,001,2023-05-06_17h27.21.173,trial uncanny,2022.2.5,60.065327050663456,
Humanoid,HSF,Stimuli For Psychopy\Robotic\matched-32-cpi-low-c61.jpeg,matched-32-cpi-low-c61.jpeg,0,46,46,32,,,,,,,203.744803199952,203.744803199952,204.7424875999568,204.7424875999568,1,[0.012821600015740842],[1.0127828000113368],-57.03703703703704,0.23053140001138672,1.3300043065100908e-05,,,TEP,001,2023-05-06_17h27.21.173,trial uncanny,2022.2.5,60.065327050663456,
Humanoid,LSF,Stimuli For Psychopy\Robotic\matched-8-cpi-low-c64.jpeg,matched-8-cpi-low-c64.jpeg,0,47,47,19,,,,,,,206.73098329995992,206.73098329995992,207.74258590000682,207.74258590000682,1,[0.00032110000029206276],[1.010486499988474],-13.70370370370371,1.9657695000059903,1.2200034689158201e-05,,,TEP,001,2023-05-06_17h27.21.173,trial uncanny,2022.2.5,60.065327050663456,
Humanoid,LSF,Stimuli For Psychopy\Robotic\matched-8-cpi-low-c61.jpeg,matched-8-cpi-low-c61.jpeg,0,48,48,17,,,,,,,211.44756439997582,211.44756439997582,212.4591064999695,212.4591064999695,1,[0.00041800003964453936],[1.0100814000470564],10.370370370370367,1.00442309997743,1.309998333454132e-05,,,TEP,001,2023-05-06_17h27.21.173,trial uncanny,2022.2.5,60.065327050663456,
Mechanical,HSF,Stimuli For Psychopy\Robotic\matched-32-cpi-low-c17.jpeg,matched-32-cpi-low-c17.jpeg,0,49,49,80,,,,,,,215.61116129998118,215.61116129998118,216.61119829997187,216.61119829997187,1,[0.000334500044118613],[0.9965335000306368],-16.666666666666657,0.34988110000267625,1.4999997802078724e-05,,,TEP,001,2023-05-06_17h27.21.173,trial uncanny,2022.2.5,60.065327050663456,
Humanoid,BSF,Stimuli For Psychopy\Robotic\matched-c67.jpeg,matched-c67.jpeg,0,50,50,7,,,,,,,219.09238319995347,219.09238319995347,220.09216369997011,220.09216369997011,1,[0.0003266999847255647],[0.9969017999828793],12.592592592592595,0.5822205999866128,1.3999990187585354e-05,,,TEP,001,2023-05-06_17h27.21.173,trial uncanny,2022.2.5,60.065327050663456,
Mechanical,BSF,Stimuli For Psychopy\Robotic\matched-c36.jpeg,matched-c36.jpeg,0,51,51,55,,,,,,,222.4441971000051,222.4441971000051,223.44204819999868,223.44204819999868,1,[0.0003386000171303749],[0.9968206000048667],4.629629629629633,0.797704899974633,1.1499971151351929e-05,,,TEP,001,2023-05-06_17h27.21.173,trial uncanny,2022.2.5,60.065327050663456,
Mechanical,LSF,Stimuli For Psychopy\Robotic\matched-8-cpi-low-c38.jpeg,matched-8-cpi-low-c38.jpeg,0,52,52,72,,,,,,,226.74434479995398,226.74434479995398,227.74228359997505,227.74228359997505,1,[0.0005364000098779798],[0.9936233999906108],8.148148148148152,0.7997026999946684,1.3000040780752897e-05,,,TEP,001,2023-05-06_17h27.21.173,trial uncanny,2022.2.5,60.065327050663456,
Mechanical,HSF,Stimuli For Psychopy\Robotic\matched-32-cpi-low-c10.jpeg,matched-32-cpi-low-c10.jpeg,0,53,53,75,,,,,,,230.32556159998057,230.32556159998057,231.32536739995703,231.32536739995703,1,[0.012945000024046749],[1.01099909999175],32.96296296296296,0.5042014000355266,1.3199984095990658e-05,,,TEP,001,2023-05-06_17h27.21.173,trial uncanny,2022.2.5,60.065327050663456,
Humanoid,HSF,Stimuli For Psychopy\Robotic\matched-32-cpi-low-c48.jpeg,matched-32-cpi-low-c48.jpeg,0,54,54,30,,,,,,,233.57743329997174,233.57743329997174,234.57527269999264,234.57527269999264,1,[0.012771799985785037],[1.012671299977228],-71.29629629629629,0.6832095000427216,1.2199976481497288e-05,,,TEP,001,2023-05-06_17h27.21.173,trial uncanny,2022.2.5,60.065327050663456,
Mechanical,BSF,Stimuli For Psychopy\Robotic\matched-c43.jpeg,Matched-c43.jpeg,0,55,55,51,,,,,,,237.04396499996074,237.04396499996074,,,1,[0.0004216000088490546],[0.9802038000198081],33.888888888888914,1.2832628000178374,1.2400036212056875e-05,,,TEP,001,2023-05-06_17h27.21.173,trial uncanny,2022.2.5,60.065327050663456,
Humanoid,BSF,Stimuli For Psychopy\Robotic\matched-c72.jpeg,matched-c72.jpeg,0,56,56,10,,,,,,,241.06346949998988,241.06346949998988,242.07717000000412,242.07717000000412,1,[0.00041779997991397977],[1.010003899980802],56.296296296296276,0.36620019999099895,1.1999974958598614e-05,,,TEP,001,2023-05-06_17h27.21.173,trial uncanny,2022.2.5,60.065327050663456,
Humanoid,LSF,Stimuli For Psychopy\Robotic\matched-8-cpi-low-c72.jpeg,matched-8-cpi-low-c72.jpeg,0,57,57,25,,,,,,,244.26048969995463,244.26048969995463,245.26041479996638,245.26041479996638,1,[0.013053699978627264],[1.0132156999898143],-68.33333333333334,0.6021400000317954,1.1700030881911516e-05,,,TEP,001,2023-05-06_17h27.21.173,trial uncanny,2022.2.5,60.065327050663456,
Humanoid,LSF,Stimuli For Psychopy\Robotic\matched-8-cpi-low-c77.jpeg,matched-8-cpi-low-c77.jpeg,0,58,58,28,,,,,,,247.67702509998344,247.67702509998344,248.67479520000052,248.67479520000052,1,[0.013398000039160252],[1.0132503000204451],9.259259259259252,0.46453270001802593,1.5300000086426735e-05,,,TEP,001,2023-05-06_17h27.21.173,trial uncanny,2022.2.5,60.065327050663456,
Humanoid,LSF,Stimuli For Psychopy\Robotic\matched-8-cpi-low-c79.jpeg,matched-8-cpi-low-c79.jpeg,0,59,59,29,,,,,,,251.22707929997705,251.22707929997705,,,1,[0.00034879997838288546],[0.9801110000116751],65.0,1.4816784999566153,1.3699987903237343e-05,,,TEP,001,2023-05-06_17h27.21.173,trial uncanny,2022.2.5,60.065327050663456,
Mechanical,LSF,Stimuli For Psychopy\Robotic\matched-8-cpi-low-c35.jpeg,matched-8-cpi-low-c35.jpeg,0,60,60,69,,,,,,,255.5298929999699,255.5298929999699,256.54340589995263,256.54340589995263,1,[0.0004810999962501228],[1.0094925000448711],28.148148148148152,1.286753199994564,1.1899974197149277e-05,,,TEP,001,2023-05-06_17h27.21.173,trial uncanny,2022.2.5,60.065327050663456,
Mechanical,BSF,Stimuli For Psychopy\Robotic\matched-c11.jpeg,matched-c11.jpeg,0,61,61,46,,,,,,,259.5933703999617,259.5933703999617,260.591309099982,260.591309099982,1,[0.013467100041452795],[1.0132698000525124],-28.33333333333333,0.566398199996911,1.1800031643360853e-05,,,TEP,001,2023-05-06_17h27.21.173,trial uncanny,2022.2.5,60.065327050663456,
Mechanical,BSF,Stimuli For Psychopy\Robotic\matched-c35.jpeg,matched-c35.jpeg,0,62,62,54,,,,,,,262.9913595999824,262.9913595999824,263.9931973000057,263.9931973000057,1,[0.013531300006434321],[1.013520599983167],14.629629629629633,0.6854946000385098,1.279998105019331e-05,,,TEP,001,2023-05-06_17h27.21.173,trial uncanny,2022.2.5,60.065327050663456,
Mechanical,HSF,Stimuli For Psychopy\Robotic\matched-32-cpi-low-c42.jpeg,matched-32-cpi-low-c42.jpeg,0,63,63,89,,,,,,,266.44133629999124,266.44133629999124,267.4429975999519,267.4429975999519,1,[0.00045089999912306666],[0.9946213999646716],7.592592592592595,0.4371538999839686,1.2199976481497288e-05,,,TEP,001,2023-05-06_17h27.21.173,trial uncanny,2022.2.5,60.065327050663456,
Mechanical,LSF,Stimuli For Psychopy\Robotic\matched-8-cpi-low-c37.jpeg,matched-8-cpi-low-c37.jpeg,0,64,64,71,,,,,,,269.9461910999962,269.9461910999962,270.9575824000058,270.9575824000058,1,[0.00041360000614076853],[1.010466500010807],-25.925925925925924,0.21576300001470372,1.260003773495555e-05,,,TEP,001,2023-05-06_17h27.21.173,trial uncanny,2022.2.5,60.065327050663456,
Humanoid,BSF,Stimuli For Psychopy\Robotic\matched-c79.jpeg,matched-c79.jpeg,0,65,65,14,,,,,,,273.00978459999897,273.00978459999897,,,1,[0.011098199989646673],[1.0114354999968782],92.77777777777777,0.6006278999848291,1.3500044587999582e-05,,,TEP,001,2023-05-06_17h27.21.173,trial uncanny,2022.2.5,60.065327050663456,
Humanoid,BSF,Stimuli For Psychopy\Robotic\matched-c74.jpeg,matched-c74.jpeg,0,66,66,11,,,,,,,276.4096627999679,276.4096627999679,277.40788089996204,277.40788089996204,1,[0.0005073999636806548],[0.9965451000025496],14.81481481481481,0.5688653000397608,1.209997572004795e-05,,,TEP,001,2023-05-06_17h27.21.173,trial uncanny,2022.2.5,60.065327050663456,
Mechanical,LSF,Stimuli For Psychopy\Robotic\matched-8-cpi-low-c17.jpeg,matched-8-cpi-low-c17.jpeg,0,67,67,65,,,,,,,279.72631629998796,279.72631629998796,280.72634170000674,280.72634170000674,1,[0.000380899989977479],[0.9967055000015534],-52.407407407407405,0.39985669997986406,1.2299977242946625e-05,,,TEP,001,2023-05-06_17h27.21.173,trial uncanny,2022.2.5,60.065327050663456,
Humanoid,BSF,Stimuli For Psychopy\Robotic\matched-c63.jpeg,matched-c63.jpeg,0,68,68,3,,,,,,,282.92618239996955,282.92618239996955,,,1,[0.013735499989707023],[1.0114299000124447],-6.666666666666671,0.6504827999742702,1.3699987903237343e-05,,,TEP,001,2023-05-06_17h27.21.173,trial uncanny,2022.2.5,60.065327050663456,
Humanoid,LSF,Stimuli For Psychopy\Robotic\matched-8-cpi-low-c69.jpeg,matched-8-cpi-low-c69.jpeg,0,69,69,23,,,,,,,286.39070069999434,286.39070069999434,287.39076609996846,287.39076609996846,1,[0.0004979000077582896],[0.9970691000344232],-23.70370370370371,0.48661229998106137,1.580000389367342e-05,,,TEP,001,2023-05-06_17h27.21.173,trial uncanny,2022.2.5,60.065327050663456,
Humanoid,HSF,Stimuli For Psychopy\Robotic\matched-32-cpi-low-c67.jpeg,matched-32-cpi-low-c67.jpeg,0,70,70,37,,,,,,,289.6427467999747,289.6427467999747,290.6591637999518,290.6591637999518,1,[0.0003513999981805682],[1.0117953000008129],-30.740740740740733,0.584124899993185,1.1699972674250603e-05,,,TEP,001,2023-05-06_17h27.21.173,trial uncanny,2022.2.5,60.065327050663456,
Humanoid,HSF,Stimuli For Psychopy\Robotic\matched-32-cpi-low-c58.jpeg,matched-32-cpi-low-c58.jpeg,0,71,71,31,,,,,,,293.0077367000049,293.0077367000049,294.0093275999534,294.0093275999534,1,[0.013268300041090697],[1.0115048000006936],-52.407407407407405,0.35087929997825995,1.1899974197149277e-05,,,TEP,001,2023-05-06_17h27.21.173,trial uncanny,2022.2.5,60.065327050663456,
Humanoid,LSF,Stimuli For Psychopy\Robotic\matched-8-cpi-low-c74.jpeg,matched-8-cpi-low-c74.jpeg,0,72,72,26,,,,,,,296.1591855000006,296.1591855000006,,,1,[0.0005044999998062849],[0.9947124000173062],23.888888888888886,0.5673020000103861,1.2299977242946625e-05,,,TEP,001,2023-05-06_17h27.21.173,trial uncanny,2022.2.5,60.065327050663456,
Mechanical,LSF,Stimuli For Psychopy\Robotic\matched-8-cpi-low-c43.jpeg,matched-8-cpi-low-c43.jpeg,0,73,73,66,,,,,,,299.9757575999829,299.9757575999829,300.97370519995457,300.97370519995457,1,[0.013444999989587814],[1.0134907999890856],-22.407407407407405,0.9493142000283115,1.2200034689158201e-05,,,TEP,001,2023-05-06_17h27.21.173,trial uncanny,2022.2.5,60.065327050663456,
Humanoid,LSF,Stimuli For Psychopy\Robotic\matched-8-cpi-low-c67.jpeg,matched-8-cpi-low-c67.jpeg,0,74,74,22,,,,,,,303.77569419995416,303.77569419995416,,,1,[0.015301900042686611],[1.013292400049977],13.888888888888886,0.73693989997264,1.4299992471933365e-05,,,TEP,001,2023-05-06_17h27.21.173,trial uncanny,2022.2.5,60.065327050663456,
Mechanical,BSF,Stimuli For Psychopy\Robotic\matched-c41.jpeg,matched-c41.jpeg,0,75,75,58,,,,,,,307.35889959998894,307.35889959998894,308.3572156999726,308.3572156999726,1,[0.013686800026334822],[1.013397399976384],-44.62962962962963,0.3642857999657281,1.2200034689158201e-05,,,TEP,001,2023-05-06_17h27.21.173,trial uncanny,2022.2.5,60.065327050663456,
Humanoid,BSF,Stimuli For Psychopy\Robotic\matched-c58.jpeg,matched-c58.jpeg,0,76,76,1,,,,,,,310.5255005999934,310.5255005999934,311.52585539995926,311.52585539995926,1,[0.0135094000142999],[1.0134296000469476],27.592592592592595,0.9029984999797307,1.3800046872347593e-05,,,TEP,001,2023-05-06_17h27.21.173,trial uncanny,2022.2.5,60.065327050663456,
Humanoid,HSF,Stimuli For Psychopy\Robotic\matched-32-cpi-low-c65.jpeg,matched-32-cpi-low-c65.jpeg,0,77,77,35,,,,,,,314.20885179995093,314.20885179995093,315.20884709997335,315.20884709997335,1,[0.01132240000879392],[1.0127722000470385],19.814814814814824,0.666507999994792,1.290004001930356e-05,,,TEP,001,2023-05-06_17h27.21.173,trial uncanny,2022.2.5,60.065327050663456,
Mechanical,BSF,Stimuli For Psychopy\Robotic\matched-c14.jpeg,matched-c14.jpeg,0,78,78,48,,,,,,,317.65888810000615,317.65888810000615,318.65893699997105,318.65893699997105,1,[0.013083000027108938],[1.0129083000356331],-27.037037037037038,0.9700625999830663,1.4399993233382702e-05,,,TEP,001,2023-05-06_17h27.21.173,trial uncanny,2022.2.5,60.065327050663456,
Humanoid,LSF,Stimuli For Psychopy\Robotic\matched-8-cpi-low-c65.jpeg,matched-8-cpi-low-c65.jpeg,0,79,79,20,,,,,,,321.44003919995157,321.44003919995157,322.4399748999858,322.4399748999858,1,[0.00033140002051368356],[0.9966467000194825],27.40740740740742,0.6328607000177726,1.2000033166259527e-05,,,TEP,001,2023-05-06_17h27.21.173,trial uncanny,2022.2.5,60.065327050663456,
Mechanical,HSF,Stimuli For Psychopy\Robotic\matched-32-cpi-low-c36.jpeg,matched-32-cpi-low-c36.jpeg,0,80,80,85,,,,,,,324.82524189999094,324.82524189999094,325.82314979995135,325.82314979995135,1,[0.013379500014707446],[1.0137952000368387],-36.85185185185185,0.38245570001890883,1.1999974958598614e-05,,,TEP,001,2023-05-06_17h27.21.173,trial uncanny,2022.2.5,60.065327050663456,
Humanoid,HSF,Stimuli For Psychopy\Robotic\matched-32-cpi-low-c69.jpeg,matched-32-cpi-low-c69.jpeg,0,81,81,38,,,,,,,327.9918086999678,327.9918086999678,328.9916738999891,328.9916738999891,1,[0.0003969999961555004],[0.9963276000344194],24.814814814814824,0.8023164000478573,1.2399978004395962e-05,,,TEP,001,2023-05-06_17h27.21.173,trial uncanny,2022.2.5,60.065327050663456,
Humanoid,LSF,Stimuli For Psychopy\Robotic\matched-8-cpi-low-c66.jpeg,matched-8-cpi-low-c66.jpeg,0,82,82,21,,,,,,,331.6584835999529,331.6584835999529,,,1,[0.0003195999888703227],[0.9953697000164539],31.481481481481495,0.5502043000306003,1.610000617802143e-05,,,TEP,001,2023-05-06_17h27.21.173,trial uncanny,2022.2.5,60.065327050663456,
Mechanical,BSF,Stimuli For Psychopy\Robotic\matched-c33.jpeg,matched-c33.jpeg,0,83,83,53,,,,,,,335.09161899995524,335.09161899995524,336.0916035999544,336.0916035999544,1,[0.0004056000034324825],[0.9961053000297397],11.666666666666671,0.6861421999637969,1.5400000847876072e-05,,,TEP,001,2023-05-06_17h27.21.173,trial uncanny,2022.2.5,60.065327050663456,
Humanoid,HSF,Stimuli For Psychopy\Robotic\matched-32-cpi-low-c66.jpeg,matched-32-cpi-low-c66.jpeg,0,84,84,36,,,,,,,338.50820639997255,338.50820639997255,339.50810829998227,339.50810829998227,1,[0.0005095000378787518],[0.9964028000249527],40.0,0.5357419999781996,1.3300043065100908e-05,,,TEP,001,2023-05-06_17h27.21.173,trial uncanny,2022.2.5,60.065327050663456,
Mechanical,LSF,Stimuli For Psychopy\Robotic\matched-8-cpi-low-c33.jpeg,matched-8-cpi-low-c33.jpeg,0,85,85,68,,,,,,,341.84166819998063,341.84166819998063,342.8392292999779,342.8392292999779,1,[0.013476100051775575],[1.0132205000263639],-36.29629629629629,0.3155274000018835,1.3100041542202234e-05,,,TEP,001,2023-05-06_17h27.21.173,trial uncanny,2022.2.5,60.065327050663456,
Humanoid,HSF,Stimuli For Psychopy\Robotic\matched-32-cpi-low-c72.jpeg,matched-32-cpi-low-c72.jpeg,0,86,86,40,,,,,,,345.29138809995493,345.29138809995493,,,1,[0.00035630003549158573],[0.9948109000106342],15.370370370370367,0.8313782999757677,1.699995482340455e-05,,,TEP,001,2023-05-06_17h27.21.173,trial uncanny,2022.2.5,60.065327050663456,
Mechanical,LSF,Stimuli For Psychopy\Robotic\matched-8-cpi-low-c14.jpeg,matched-8-cpi-low-c14.jpeg,0,87,87,63,,,,,,,348.8747362999711,348.8747362999711,349.87448889994994,349.87448889994994,1,[0.0003580999909900129],[0.9969904000172392],9.444444444444457,0.5495750000118278,1.8200022168457508e-05,,,TEP,001,2023-05-06_17h27.21.173,trial uncanny,2022.2.5,60.065327050663456,
Humanoid,HSF,Stimuli For Psychopy\Robotic\matched-32-cpi-low-c71.jpeg,matched-32-cpi-low-c71.jpeg,0,88,88,39,,,,,,,352.15786380000645,352.15786380000645,353.15773179999087,353.15773179999087,1,[0.00041579996468499303],[0.996455899963621],19.259259259259267,0.39935140003217384,1.2400036212056875e-05,,,TEP,001,2023-05-06_17h27.21.173,trial uncanny,2022.2.5,60.065327050663456,
Humanoid,BSF,Stimuli For Psychopy\Robotic\matched-c48.jpeg,matched-c48.jpeg,0,89,89,0,,,,,,,355.3744490999961,355.3744490999961,,,2,"[0.00046880001900717616, 0.846657200017944]","[0.8131379000260495, 0.9946539000375196]",-36.66666666666667,0.3667769000167027,1.1499971151351929e-05,,,TEP,001,2023-05-06_17h27.21.173,trial uncanny,2022.2.5,60.065327050663456,
,,,,,,,,,,,,,,,,,,,,,,,,0.015410799998790026,1.0291447999770753,,,,,,,
